acc_x,acc_y,acc_z,eda,bvp,hr,temp,pain_level
0.0597,-0.0125,-0.0414,1.032,61.9,57.3,34.49,2
0.0347,-0.6173,1.886,1.613,85.8,113.7,33.59,7
-0.0121,-0.0567,-0.0365,1.368,68.3,57.7,34.46,4
0.4321,-0.0323,-0.2389,1.96,83.2,76.1,33.39,6
-0.0244,-0.0581,-0.1056,0.683,74.7,45.9,34.29,1
0.0441,-0.0452,-0.0057,1.344,66.5,59.7,34.17,4
0.5206,-1.5306,0.3533,1.113,77.9,122.3,34.21,8
0.2844,-0.004,-0.3042,0.839,75.7,71.5,34.22,3
0.1484,0.0617,-0.0244,0.941,69.4,79.3,33.98,4
0.3743,0.8138,-1.2998,2.839,79.4,113.6,33.76,8
0.1782,-1.4764,2.4999,2.63,89.0,109.4,33.5,8
0.0113,-0.0388,-0.0325,0.94,71.4,54.9,33.79,1
0.4538,2.3482,-2.8507,2.095,82.4,115.8,33.67,8
0.0862,0.1983,0.0391,2.633,70.3,68.9,33.25,7
0.0734,0.0637,-0.0595,0.122,74.6,57.6,34.2,1
1.7511,-1.2703,-2.0957,1.875,82.7,124.1,33.28,8
0.0787,-0.0137,-0.0288,1.498,73.2,56.7,33.33,3
-0.0426,0.0485,-0.0491,1.032,76.6,41.7,34.27,1
-0.6795,-0.0905,0.2033,2.083,72.1,83.5,33.14,7
0.0439,-0.0293,-0.0196,1.083,72.9,54.9,33.73,2
0.0425,-0.1053,0.0096,0.477,63.4,60.5,33.52,1
-0.1663,-0.2318,-0.3124,1.257,74.3,72.3,34.16,5
-2.6633,-1.117,0.1427,1.844,81.2,104.3,33.33,7
-0.0564,0.1303,-0.0557,1.866,74.1,61.1,34.14,5
-0.052,-0.0482,0.0231,1.304,65.3,65.8,34.07,4
0.3669,-0.2689,-1.2097,2.136,78.8,88.2,33.65,7
-0.0155,-0.0344,0.0338,1.417,61.1,54.3,34.23,3
0.0725,0.028,-0.0342,0.797,76.3,53.4,33.97,1
2.8289,0.4626,0.9248,2.057,86.6,118.2,33.36,8
0.0242,0.032,-0.185,0.738,71.5,73.2,34.0,3
1.4611,-0.7588,0.4645,1.384,90.1,94.6,33.61,6
0.0144,0.0299,-0.0235,0.708,70.4,53.5,33.01,1
-0.1484,-0.0752,0.2105,1.81,70.0,69.6,33.5,6
0.0548,-0.0782,-0.0025,0.436,77.0,58.1,33.93,1
0.0492,0.0132,-0.0051,0.499,64.2,48.9,33.82,1
-0.0177,0.0212,-0.2376,0.793,79.7,75.5,34.21,3
-0.0387,0.0318,0.0292,1.404,71.6,62.3,33.71,4
-0.2727,0.1576,-0.1998,0.243,67.9,76.3,34.38,2
0.4726,0.0572,-0.0411,0.706,65.3,66.0,33.27,1
-0.0529,0.0067,-0.0143,0.772,71.8,53.3,34.52,1
-0.0797,-0.0641,0.0426,0.612,70.5,53.7,33.95,1
0.5007,1.2206,0.9083,2.204,82.4,93.9,33.48,7
0.0931,-0.0159,0.0679,0.259,73.4,57.7,33.75,1
0.0072,0.008,-0.0051,0.531,75.5,48.1,34.09,1
-0.0267,-0.0552,0.0681,0.643,73.7,56.5,34.34,1
0.1029,-0.0181,-0.0751,1.405,65.9,102.0,34.27,7
-0.016,-0.0401,0.0181,0.266,75.0,55.5,33.88,1
-0.0076,-0.0752,-0.0372,0.18,73.3,51.6,34.09,1
0.0786,-0.2182,-0.2913,1.22,73.5,79.3,33.5,5
-0.0347,0.021,-0.0334,1.622,64.8,54.7,34.41,4
2.3229,0.6135,-1.3446,2.408,75.7,94.9,33.59,7
-2.1443,-1.579,-0.3832,3.597,81.0,114.2,33.51,8
1.2636,-1.1471,0.8891,1.69,87.1,109.4,34.37,8
0.0908,0.1118,-0.0266,0.495,72.4,49.7,34.34,1
-0.0139,0.0155,-0.0172,1.056,63.7,54.7,34.07,2
-0.0327,0.0223,0.0698,0.534,72.7,61.7,33.94,1
0.032,0.0096,0.0053,1.318,73.7,54.3,33.78,2
0.0835,-0.026,-0.0401,0.594,68.4,52.7,33.46,1
-0.0038,-0.0133,-0.0276,0.284,55.9,50.2,33.67,1
0.0666,0.0215,0.0264,1.326,72.9,52.5,33.97,2
-0.07,-0.2701,-0.3535,1.337,73.2,72.5,33.55,5
-0.208,-0.1168,-1.1536,2.651,82.8,86.4,34.17,8
0.077,0.3489,0.4237,0.413,66.7,73.0,34.06,2
-0.1577,-0.1378,-0.8343,1.766,82.6,94.5,34.19,7
-0.0049,0.0064,-0.0066,0.024,62.1,58.0,33.74,1
-0.0461,0.0798,0.0371,0.714,65.5,66.3,33.94,2
-0.1342,0.0085,-0.1311,0.079,70.0,77.8,33.16,1
0.1022,-0.099,-0.0159,0.652,77.1,59.2,33.41,1
-0.1126,-0.2265,-0.7384,1.537,79.6,96.6,33.63,7
-0.1715,-0.0945,-0.0901,1.381,55.7,77.3,33.23,5
0.0528,-0.0617,-0.0575,0.047,71.1,59.7,33.67,1
0.0709,0.0193,-0.0102,1.744,74.2,49.5,33.85,3
-0.039,0.0421,0.0388,0.034,64.7,58.5,33.92,1
0.6603,-0.1715,0.0071,1.654,67.5,74.2,33.72,5
-0.031,0.9853,0.4739,0.909,81.7,114.7,33.2,6
0.2364,0.1107,-0.1803,0.981,80.5,74.6,33.18,3
0.0474,0.062,0.0335,2.033,69.2,59.2,33.71,5
-0.0255,-0.0249,-0.0592,0.54,73.8,62.5,34.42,1
0.0258,-0.0304,-0.0632,0.013,64.3,63.5,33.54,1
-0.2047,0.051,0.023,0.404,69.6,72.6,34.28,2
0.1591,-0.2115,-0.439,1.642,70.8,70.4,33.64,5
0.4172,-0.9441,-0.5429,2.753,83.9,109.4,33.34,8
0.0712,-0.4599,-0.6408,1.306,78.0,103.1,33.98,7
-0.0395,0.0424,0.0308,0.418,72.1,53.3,34.03,1
0.3488,-0.0787,0.25,2.323,74.7,81.4,33.79,7
0.0052,-0.1271,0.0175,0.234,73.7,64.4,34.01,1
1.1425,-0.0851,-1.3513,1.883,68.3,95.4,33.37,7
0.0164,0.0286,0.014,0.374,84.5,58.7,33.69,1
-0.0047,0.3261,0.4203,1.187,78.6,73.0,33.61,4
0.0706,-0.5542,-0.2936,0.228,72.3,81.2,33.79,1
-0.5641,-1.0363,0.1539,0.109,72.8,94.4,33.85,3
0.016,0.0679,-0.0007,0.046,66.6,60.5,34.0,1
-0.1178,-0.0983,-0.0051,0.96,72.0,53.7,34.2,1
-0.0204,0.0173,-0.0565,1.578,66.4,61.9,34.04,4
0.0095,0.0039,-0.0114,0.151,71.4,61.8,33.69,1
-0.2196,-0.173,-0.5075,2.285,75.1,68.1,33.86,6
-0.9012,-1.3785,0.0104,1.837,71.2,95.1,33.84,7
1.5784,-1.0785,-0.4503,2.464,79.9,99.3,32.91,8
-0.9834,0.3661,-0.0104,1.268,88.6,96.5,33.89,6
-0.0468,-0.0189,-0.0484,0.627,75.9,87.6,33.62,5
0.3716,0.2554,-0.1626,0.669,70.6,69.5,33.45,2
0.0302,-0.3549,0.5301,1.023,76.2,72.8,33.78,4
-0.0409,-0.0566,0.0183,0.086,57.1,56.3,34.09,1
-0.0367,0.0009,-0.0331,0.497,62.9,52.7,33.99,1
0.0333,0.0046,0.0443,1.846,65.5,52.6,33.5,4
0.2855,-0.1956,0.2781,0.276,68.7,74.8,33.68,1
-0.2423,0.5055,0.1734,0.824,66.7,71.2,33.36,2
-0.0749,0.0193,0.0409,0.656,71.5,59.7,33.8,1
0.0759,-0.0346,0.0382,0.316,77.3,51.4,33.95,1
-0.1331,-0.2634,-0.1528,1.176,63.3,76.7,33.54,5
0.0409,-0.0161,-0.1518,0.132,74.2,52.0,34.23,1
-0.0743,-0.1164,0.0977,1.1,70.7,77.2,33.72,5
-0.1469,0.254,-0.0915,0.713,67.7,81.8,33.8,3
-0.0582,0.0356,-0.0173,0.48,67.2,53.2,34.34,1
-0.0021,0.035,0.005,0.385,76.5,40.4,34.4,1
-1.2118,-1.0874,1.0464,2.0,75.0,91.5,33.61,7
0.1187,-0.0095,0.0091,1.317,61.8,50.6,33.48,2
0.1535,-0.1929,-0.0527,1.662,80.4,77.7,33.51,6
0.071,-0.0143,-0.0107,0.509,72.6,61.2,34.18,1
-0.0386,0.2046,-0.1792,1.486,66.2,69.3,34.08,5
-0.0226,-0.1185,0.0168,1.231,68.4,52.5,34.58,3
-0.0705,0.0533,-0.0199,0.105,66.4,55.5,34.0,1
0.0502,-0.2565,0.6709,1.475,70.0,78.4,33.86,5
0.0273,0.0145,-0.0778,1.336,72.6,56.5,34.17,3
-0.004,-0.0319,-0.0979,1.04,71.0,51.6,34.16,1
1.4441,-0.9685,-0.9317,2.7,82.1,108.4,34.19,8
0.1066,-0.0346,-0.051,0.034,66.1,60.5,33.7,1
-1.1057,-1.4351,0.3617,2.025,73.7,95.0,33.42,7
0.0313,-0.0335,-0.0613,1.165,71.6,44.5,33.84,1
0.0207,-0.0004,-0.0336,0.853,78.2,47.3,34.37,1
-0.017,-0.0007,0.0219,0.008,58.5,52.7,34.1,1
0.1016,-0.0926,0.0308,1.06,64.6,55.7,33.71,2
-0.4697,0.9021,0.7012,1.563,81.3,112.0,33.93,8
-0.0409,0.0354,0.0665,0.236,69.8,54.7,33.75,1
-0.2301,-0.5382,-0.1155,0.946,67.7,80.2,33.54,4
-0.032,0.0163,-0.0408,1.909,63.2,56.1,33.82,5
0.2532,0.7833,-0.6007,1.533,76.0,80.7,34.24,6
0.0517,-0.014,-0.0028,1.515,71.0,57.2,33.93,4
0.0808,-0.4528,-0.6658,1.503,68.8,95.8,34.06,7
0.0113,0.0359,0.0394,1.114,71.3,40.6,33.97,1
0.0798,-0.1064,0.292,1.622,82.4,100.3,33.55,7
0.0237,0.0313,-0.0402,0.399,66.0,48.6,34.1,1
-0.5439,-0.9485,0.3745,1.664,81.5,89.9,33.5,6
-0.5249,0.1634,0.2074,1.327,68.8,66.1,33.62,4
0.2583,-0.1346,1.2431,1.737,75.2,93.6,33.6,7
-0.0091,0.031,-0.0295,1.478,75.2,56.8,33.8,3
0.2907,0.1467,-0.4336,0.525,67.8,71.6,33.68,2
-1.8914,-0.8023,3.1361,2.127,85.8,111.7,34.01,8
-0.3525,-0.0462,-4.341,2.208,82.0,120.1,33.61,8
1.2225,-0.1823,0.4098,0.78,85.7,89.7,33.55,4
2.1031,0.1505,-0.9342,1.188,81.8,86.3,34.05,5
0.0499,-0.0445,-0.0295,0.783,67.8,52.7,33.77,1
0.5845,-0.3539,-1.346,2.595,87.6,97.3,33.57,8
-0.0636,-0.0868,-0.0556,0.862,85.8,56.4,33.69,1
-0.4605,0.1798,0.0475,1.427,79.2,80.5,34.03,5
-0.0261,-0.0278,-0.0698,0.695,72.9,53.5,33.79,1
0.4382,-0.1263,0.0452,1.05,70.6,76.6,33.49,4
-0.0671,0.0499,-0.0767,0.256,69.5,55.0,34.56,1
0.0087,0.0217,0.1086,0.236,70.7,49.5,33.83,1
0.3288,0.004,-0.1694,2.117,69.4,81.2,33.6,7
-0.0229,-0.0119,0.1192,1.323,69.9,55.9,34.2,3
0.04,-2.5775,-0.8542,1.777,73.2,113.5,33.47,8
0.0399,0.0211,0.0148,0.081,71.5,54.4,33.57,1
0.035,0.0414,-0.0009,0.216,69.0,53.6,34.56,1
0.0826,0.6938,-0.2336,2.383,70.8,81.9,33.87,7
0.1788,1.5024,1.7404,2.454,80.9,89.8,33.98,7
0.7306,0.7769,-0.2283,2.268,84.8,89.2,34.07,7
-0.0475,0.0779,0.0309,1.742,74.2,60.0,33.72,4
0.0341,-0.0476,-0.0758,1.927,77.8,52.6,34.05,5
0.1863,0.1487,0.0747,0.785,65.9,69.5,33.72,2
-0.0267,-0.0748,-0.0049,0.441,76.5,48.6,34.19,1
-0.2746,0.4301,-0.0247,0.078,69.4,68.6,33.74,1
-0.5924,0.1518,-0.3266,1.623,75.2,79.3,33.46,5
0.1521,0.1826,-0.7125,0.584,77.1,101.5,33.24,5
-0.3953,0.2172,-0.2536,0.785,72.2,74.7,33.78,3
-0.1004,-0.3024,-0.3023,0.388,73.7,76.5,33.77,2
0.4258,-1.4836,0.2134,1.559,81.0,90.9,33.69,6
-0.0197,-0.0467,0.0273,0.295,73.0,47.2,34.41,1
-0.0625,-0.0085,0.084,0.341,66.0,48.2,34.29,1
0.2592,-0.1285,-0.4315,2.02,70.7,81.4,33.85,7
-0.047,-0.0082,-0.0432,0.857,77.4,55.9,34.09,1
2.0133,-3.2047,0.1299,2.634,80.4,115.0,34.13,8
-0.1951,0.2969,-0.3827,1.393,78.4,101.8,33.35,7
0.0705,0.1505,0.3831,1.415,74.6,75.7,34.09,5
-0.5093,-0.2228,2.6793,0.88,86.0,122.8,33.72,7
-0.5255,0.2959,-0.7226,1.666,77.9,96.0,33.55,7
0.0527,-0.0114,0.0676,0.401,68.6,55.0,34.15,1
0.0245,0.2378,-0.4811,0.975,71.7,69.0,33.33,2
0.0887,-0.0666,0.0104,0.207,67.4,52.7,33.9,1
-0.03,0.0132,0.0049,1.128,69.6,50.6,34.14,2
0.0439,-0.0518,0.0674,0.743,67.1,57.2,33.55,1
0.2003,0.1433,0.441,1.922,77.0,82.5,33.47,7
-0.2302,0.1587,-0.1449,0.31,65.0,72.6,33.45,2
-0.003,0.0469,0.0883,0.153,72.7,77.8,33.75,1
1.4044,0.3268,0.2404,0.901,75.7,90.5,33.88,5
-0.7134,0.3068,-0.0477,1.385,75.2,94.2,33.78,7
-1.3936,0.0216,1.526,1.218,82.0,93.1,34.1,6
-0.6711,-0.036,0.0551,1.699,65.9,81.0,33.72,6
0.0996,-0.0928,-0.0971,1.956,70.7,69.1,33.34,6
0.1194,-0.5504,-3.0386,1.456,80.7,111.7,33.87,7
-0.0725,0.0524,-0.0829,1.809,64.3,58.5,34.23,5
-0.2086,0.1798,0.338,1.684,71.4,79.2,32.95,5
-0.1626,0.7963,0.3264,0.942,78.9,84.9,34.04,4
0.0631,-0.6565,0.113,0.54,86.1,75.9,33.57,2
-0.6393,-0.8832,0.3432,1.465,75.9,93.1,33.47,6
0.0438,0.002,-0.0359,1.594,84.0,43.1,34.24,2
-0.0118,0.0387,0.0651,0.084,62.3,55.3,33.81,1
-0.0213,0.4479,0.1029,1.164,77.9,75.1,33.61,4
0.0223,0.0843,-0.0406,1.169,63.6,46.3,34.33,1
0.5035,-0.449,0.1828,1.87,72.6,70.6,33.6,6
0.3693,-0.5976,-0.3982,1.075,66.3,79.8,33.64,4
0.067,-0.0039,0.0333,0.052,69.4,58.4,33.83,1
0.4692,-1.5585,0.92,1.729,77.5,90.2,33.77,7
0.0508,-0.0294,0.0616,1.328,63.0,51.1,33.25,2
-0.0856,-0.0688,0.0266,0.266,65.4,49.8,34.05,1
-0.0458,0.0211,-0.0043,1.064,63.1,49.9,33.95,1
-0.0108,0.0185,0.0263,1.252,74.3,58.3,34.07,3
0.0684,0.0176,0.0898,1.131,72.3,62.2,33.47,2
-0.7736,-0.3341,-0.0817,1.295,71.7,77.6,33.27,4
0.4993,0.7218,0.249,0.705,65.6,79.8,33.62,3
0.0381,0.0673,-0.0465,1.188,72.6,45.9,33.86,1
-0.025,-0.0786,0.039,0.675,66.8,57.3,33.74,1
-2.5105,-0.2403,-0.1503,2.839,89.3,126.7,33.61,8
-0.0862,-0.0212,0.0778,0.928,63.9,43.0,34.05,1
-0.0199,0.0324,-0.0018,0.924,69.3,54.6,33.63,1
0.0845,0.0605,0.0476,0.982,70.6,56.8,33.83,1
0.0161,0.034,-0.0483,0.206,73.5,59.0,33.88,1
-0.0364,-0.0687,-0.0755,0.474,75.9,55.4,33.93,1
-0.0188,-0.0417,-0.0216,1.145,74.6,54.8,34.05,2
-0.0067,0.1073,-0.0199,0.26,68.5,51.2,34.39,1
-0.0267,-0.029,0.1169,1.163,73.6,82.8,34.31,5
0.5792,0.9347,-1.0656,0.466,78.3,100.6,33.54,4
0.32,-0.1939,0.1701,1.264,78.1,77.1,33.57,5
0.0088,0.0254,-0.0697,1.727,72.8,51.6,33.46,3
-0.0101,0.004,0.0967,0.048,65.0,51.7,33.7,1
0.2343,-0.1887,-0.8433,0.488,69.0,90.8,33.58,3
0.0339,-0.0369,0.0579,0.699,66.8,54.3,33.63,1
-0.0539,-0.2488,0.1768,1.53,75.1,76.1,33.7,5
0.3029,0.0607,-0.4393,1.532,71.0,73.4,33.66,5
0.0358,-0.0607,-0.0308,1.109,64.5,52.9,33.88,1
0.0219,0.0029,0.0347,0.825,73.3,52.1,34.53,1
0.0412,-0.028,-0.1203,0.978,69.4,48.0,34.16,1
0.1986,0.0862,-0.2692,1.231,67.0,71.4,33.94,4
0.0314,0.0535,0.0535,1.15,64.4,51.0,34.26,2
-0.1965,0.4886,0.075,1.468,70.3,68.7,33.64,5
0.0142,-0.0042,0.0442,1.903,66.0,60.9,33.71,5
0.1426,-1.2678,-1.3698,1.77,83.4,92.5,33.72,7
-0.1164,-0.3262,0.36,0.726,77.3,77.2,34.04,3
-0.0498,-0.0395,-0.0641,1.393,81.5,52.1,34.3,3
0.3221,0.0095,-0.0699,0.392,64.2,78.9,33.53,2
-0.0005,0.0301,0.0764,1.454,76.3,54.9,34.54,3
-0.624,-0.1759,1.2965,2.023,79.6,100.2,34.06,8
0.0011,-2.5528,1.7632,1.918,78.2,120.1,33.39,8
1.02,1.1495,1.6066,0.974,80.9,108.2,33.56,6
-0.0606,0.0828,-0.3727,0.987,65.5,78.2,33.87,4
0.8428,0.2725,0.4873,2.593,75.8,89.8,33.7,8
-0.1509,0.2665,-0.3378,1.847,73.0,74.4,33.33,6
0.0463,0.3796,0.0443,0.123,72.3,71.9,33.73,1
0.0247,0.04,0.2965,1.517,79.5,68.6,33.75,4
-0.0048,-0.0649,0.042,0.06,70.7,54.6,33.77,1
-0.2945,-0.1231,-0.4898,1.757,70.9,92.3,33.7,7
0.1703,-0.0097,0.3381,0.79,62.6,74.1,33.47,3
-0.0486,-0.0494,0.069,1.217,57.2,55.5,33.74,2
0.0044,0.0139,-0.0582,1.223,65.3,50.5,33.54,2
0.1825,0.4137,-0.3139,1.897,73.3,78.0,33.37,6
1.7744,-1.5944,-0.1069,2.254,70.3,120.4,33.72,8
-0.0737,-0.076,-0.1162,1.58,72.4,71.2,33.91,5
-0.679,-0.6063,1.2703,2.07,84.9,118.4,34.0,8
-0.0255,0.0225,-0.0136,0.445,75.2,51.6,33.98,1
-0.0312,-0.0268,0.0551,0.028,64.3,50.0,34.19,1
-0.0692,-0.0283,-0.0385,0.442,76.0,51.8,33.97,1
0.0349,-0.0145,-0.0324,0.924,67.2,58.6,34.22,2
-0.3353,-0.0948,0.2051,1.393,73.4,65.0,33.27,4
-0.0245,0.0109,-0.0832,1.359,62.0,55.7,34.23,2
-0.16,0.1178,0.3458,1.774,77.2,96.8,33.56,7
-0.2284,0.1623,0.2384,1.834,66.1,82.6,33.85,6
-0.2656,0.1275,0.0583,0.783,78.7,74.9,33.27,3
-0.0344,-0.0715,0.4518,2.216,75.3,76.2,33.58,7
-0.7774,0.1937,-0.2712,2.65,72.0,99.1,33.92,8
-0.1538,-1.2978,1.8548,2.641,84.5,124.3,33.34,8
-0.0226,-0.7518,0.8875,1.978,70.9,86.9,33.99,7
0.0411,0.0383,-0.0515,1.083,78.3,53.1,34.44,2
-0.0717,-0.0108,-0.0503,2.119,69.7,57.0,34.55,6
0.6579,-0.2381,1.0679,1.885,75.9,102.1,33.53,7
-0.0955,-0.1155,-0.0222,0.9,66.6,46.2,33.94,1
-0.0548,-0.051,0.0425,0.421,73.7,58.3,34.31,1
0.134,-0.1679,0.2115,0.696,66.0,71.1,33.5,2
-0.1901,0.0735,-0.4643,1.379,68.0,76.9,33.42,5
-0.5642,1.3286,-2.2804,2.752,83.1,120.4,33.31,8
0.076,-0.0338,0.053,0.884,71.5,58.2,34.31,2
0.3028,-0.3439,0.1281,1.039,77.7,69.6,33.29,3
-0.0462,0.2189,-0.4035,0.735,67.1,74.6,33.15,2
-0.3351,0.4451,0.1895,0.719,69.0,75.7,33.14,2
0.423,0.3995,-0.0333,0.9,68.8,75.4,33.22,3
-0.3722,0.0709,-0.4605,0.798,79.8,79.1,33.72,3
0.0366,0.1997,-0.0559,0.737,72.7,72.0,33.56,2
0.1015,0.0645,-0.019,1.165,60.7,62.9,34.72,4
0.0049,0.0262,-0.0071,0.403,69.4,52.7,33.76,1
-0.4512,0.352,-0.2949,1.555,74.3,72.1,33.17,5
0.4283,-0.4386,0.3467,0.143,71.4,71.0,34.12,1
0.002,0.07,0.0433,0.647,72.6,60.2,33.75,1
-0.6575,0.597,0.8829,1.83,79.4,94.1,33.47,7
0.0448,0.0587,-0.0176,2.427,70.8,53.1,34.55,6
-1.5825,0.2594,0.0292,1.414,71.9,103.6,34.15,7
0.4495,0.0824,0.7855,2.155,88.1,87.1,34.35,7
-1.1036,-0.5982,-0.3015,1.379,73.3,90.1,33.23,5
0.3443,-0.5479,0.2858,0.885,66.5,78.5,34.09,3
0.2487,-0.0037,0.4241,1.307,71.3,78.3,33.67,5
0.0748,-0.0909,-0.1923,1.081,85.3,71.9,33.32,4
-0.0136,0.0717,0.1048,2.243,66.0,54.7,34.06,6
0.7289,0.054,0.7219,1.496,86.1,103.3,33.88,7
0.0254,0.0944,0.0005,0.725,72.0,59.2,33.54,1
-0.0546,0.0649,0.0884,0.187,69.2,53.4,34.07,1
-0.0258,0.1201,0.1117,0.547,78.3,80.6,33.85,3
0.8565,0.1234,-0.4958,2.538,84.6,118.8,33.86,8
-0.1256,0.4151,0.3675,0.718,71.3,69.5,34.34,2
-0.0793,0.0826,-0.1073,1.347,67.7,76.1,33.39,5
-0.1448,0.475,0.1916,1.087,76.9,80.7,34.02,5
0.1057,0.065,-0.0016,0.568,68.5,55.1,34.47,1
-0.0421,-0.0802,0.0368,0.431,72.4,58.9,34.06,1
-0.0234,0.3498,0.4874,0.517,67.5,70.2,33.2,1
-0.0262,-0.0009,0.0008,0.974,75.8,56.7,33.67,2
-0.5639,-0.1241,0.7321,1.681,82.4,92.0,33.69,7
0.079,-0.0917,-0.0595,0.377,76.0,54.3,34.41,1
0.0939,0.394,-0.199,1.311,72.1,75.9,33.63,4
0.0518,-0.0285,0.0719,1.726,75.2,58.6,33.85,4
-0.4197,-0.0177,0.4485,1.25,83.5,69.7,33.91,4
-0.0475,0.0365,-0.0025,0.282,73.5,57.7,33.81,1
-0.2703,-0.143,-0.0632,1.131,69.0,80.1,34.02,5
-0.074,-0.0843,-0.0094,0.11,69.8,54.3,34.2,1
0.96,0.3101,-1.0755,0.98,78.5,98.3,34.18,6
1.4524,-0.9055,0.1752,1.477,74.6,90.4,33.32,5
0.0547,0.0948,0.1258,0.0,63.1,54.0,34.47,1
-0.1306,0.0388,-0.032,1.728,60.5,51.2,33.72,4
-0.0248,-0.0581,-0.0169,1.862,58.3,55.5,34.07,5
0.0773,0.0122,-0.0684,0.353,55.5,47.9,33.76,1
-0.9698,0.8649,0.895,1.738,68.6,84.3,34.17,6
0.4656,-0.0099,0.0468,1.965,72.3,77.3,33.2,6
-1.2272,-2.1217,0.4725,2.13,82.6,112.2,33.74,8
-0.0956,0.061,0.0565,2.292,66.8,50.3,33.96,5
0.0086,-0.063,0.1087,1.703,65.9,47.2,33.58,2
-0.9852,-0.1349,0.0326,1.624,74.8,102.6,33.48,7
-0.5212,0.593,-0.5932,1.427,84.3,100.3,33.71,7
0.312,-0.4634,0.201,1.22,81.9,73.6,33.92,4
0.3121,-0.0583,0.1211,1.431,73.3,75.6,34.13,5
-0.1595,-0.1526,0.0522,1.276,74.7,77.4,33.83,5
0.0545,-0.0014,-0.0269,1.642,68.1,48.8,33.27,2
0.4501,-0.212,-0.6451,0.951,69.6,84.0,33.73,4
0.0125,-0.0526,-0.0265,0.326,71.0,60.3,33.88,1
-0.0264,-0.0585,0.0917,0.347,63.5,46.1,34.01,1
0.1075,-0.0024,0.0068,0.988,67.2,50.4,34.12,1
-0.0008,-0.0751,0.0298,0.207,67.9,59.7,34.25,1
-0.4687,0.071,0.0366,0.458,70.4,69.5,33.96,1
0.0157,-0.0769,0.0312,1.02,70.2,59.7,33.75,2
0.1864,0.1203,0.0018,1.533,78.5,75.9,34.5,6
0.0136,-0.2115,-0.3802,0.952,80.8,77.8,34.01,4
-0.4413,0.1116,-0.0665,0.553,76.8,77.2,33.33,2
-0.2189,-0.3574,0.1873,1.496,80.1,76.0,32.81,5
2.0702,2.1466,-1.4934,1.832,89.4,112.1,33.44,7
0.1379,-0.2803,-0.0369,0.397,74.2,74.0,33.69,2
-0.1567,-0.0583,-0.0403,0.543,69.7,51.5,33.99,1
0.0227,0.0481,0.0069,1.207,67.7,52.7,33.91,2
0.0459,0.0471,-0.0214,0.07,70.0,54.2,34.21,1
-0.0399,-0.0247,-0.0402,0.319,71.1,57.0,33.94,1
-1.115,-2.3851,0.6025,1.811,80.2,115.3,33.59,8
-2.7378,0.9701,-1.5901,3.142,84.0,102.8,33.79,8
-0.0227,-0.0282,0.006,1.176,74.8,54.2,33.47,2
-0.0749,0.0124,0.0533,1.597,72.5,58.2,33.24,4
1.4076,-0.5981,0.4864,0.987,80.9,92.8,33.99,5
0.2047,-0.0462,0.1071,1.269,67.1,81.2,33.82,5
-0.2148,-0.2712,0.1605,1.256,77.9,87.3,34.09,6
0.0709,-1.6234,1.2741,1.798,76.6,96.1,33.86,7
0.0298,-0.0138,-0.1177,0.794,80.4,58.6,34.06,2
0.1747,-0.2297,-0.3388,1.605,79.0,70.2,33.49,5
-1.6181,1.5326,-2.0861,3.432,84.1,108.7,33.72,8
0.1152,0.3945,-0.2552,2.091,72.8,73.1,33.88,6
0.3178,-0.1471,-0.0952,0.328,72.8,75.1,33.53,1
1.2014,-0.7147,0.7897,1.85,77.5,92.3,33.63,7
-0.004,0.0687,0.0404,1.108,73.0,52.8,34.5,1
-0.0209,0.0813,-0.0358,0.815,77.3,54.2,33.34,1
1.9898,0.9111,0.4592,2.418,82.9,104.9,33.62,8
0.0702,0.0016,0.0911,1.403,76.9,58.9,34.32,4
-1.1175,-0.7986,0.2882,1.802,76.1,93.5,33.4,7
0.057,-0.0004,-0.0005,0.917,72.4,50.6,33.46,1
-1.0119,1.0882,-0.2088,0.998,78.6,87.3,33.76,5
-0.0865,0.0291,-0.0493,0.254,70.9,63.2,33.91,1
-0.0519,0.035,0.0446,0.562,69.1,54.6,34.38,1
-0.1502,-0.2728,0.3534,1.268,68.6,74.1,33.65,5
-0.1514,-0.4575,-0.314,0.288,68.3,73.8,33.59,1
0.0178,-0.0225,-0.0307,0.403,64.0,55.3,33.64,1
0.2516,-0.1513,0.1368,0.353,68.4,72.6,33.8,1
-0.0635,0.0301,-0.0087,0.649,67.7,48.2,33.75,1
0.0575,0.0597,0.0547,1.11,61.7,57.9,34.3,2
0.1062,-0.3955,0.0373,0.415,65.0,81.2,33.93,3
-0.2468,-0.0261,-0.5988,0.188,80.8,73.7,33.39,1
-0.084,-0.0307,-0.0086,0.114,66.4,53.1,34.35,1
-0.3925,0.3838,-1.5752,3.125,85.4,112.7,33.8,8
-0.1487,-0.413,-0.1493,0.079,70.1,81.9,33.51,1
-0.1345,-0.0168,0.0483,0.121,68.5,45.5,33.44,1
-0.1169,-0.0697,0.3451,1.598,75.5,76.7,33.79,6
-0.0372,-0.1571,0.0207,1.363,69.1,77.4,33.63,5
2.421,-0.1188,2.5751,2.148,78.0,115.1,33.75,8
-0.8862,-0.4648,-1.4523,2.145,72.5,86.3,33.45,7
-0.3133,0.4988,0.3057,1.377,71.2,70.6,33.52,4
0.0563,-0.0061,-0.0245,1.265,67.3,54.1,33.77,2
0.167,-0.3786,-0.5054,2.14,64.0,74.1,34.62,7
0.042,0.0086,-0.0212,0.969,62.8,50.1,34.44,1
0.0068,0.053,0.0225,0.011,68.9,60.6,33.92,1
0.2983,-0.0622,0.3073,0.187,70.5,69.9,33.23,1
-0.0179,0.0861,-0.0065,0.67,70.2,61.5,33.86,1
0.0238,-0.0137,-0.0407,1.152,75.7,62.0,34.51,4
-0.1429,0.0284,-0.124,0.79,70.9,73.3,33.17,2
0.3073,-0.0807,-0.6384,0.874,78.3,66.9,33.71,2
-0.2738,-0.1746,-0.3192,0.267,71.2,76.5,34.0,1
0.0328,0.0071,0.0914,0.488,66.4,56.3,34.05,1
-0.0325,-0.0233,-0.0942,0.533,81.2,64.3,34.31,2
1.1197,-0.5195,-0.5487,0.743,72.9,107.7,33.89,6
0.1921,-1.1567,0.1303,1.689,77.4,103.2,34.3,7
0.0675,-0.0265,0.0028,0.525,69.3,50.0,34.51,1
-0.0397,-0.0205,0.0337,1.207,77.9,51.3,33.61,2
-0.0364,0.3401,0.1008,2.076,70.3,69.0,34.62,6
-0.3957,0.0984,-0.229,2.34,80.5,87.1,33.9,7
0.0562,0.076,-0.0517,1.16,64.0,55.2,33.47,2
-0.1264,-0.0154,-0.0624,1.402,75.9,50.2,34.14,2
0.0033,-0.0205,0.0527,0.168,71.1,48.8,33.91,1
0.0922,0.2332,-0.4502,1.463,74.9,68.8,33.69,4
0.0977,0.0216,0.0255,1.661,66.9,55.5,34.22,4
1.0171,0.3906,0.3756,1.41,69.5,97.0,33.29,6
0.4469,-0.1619,0.6342,1.09,75.8,82.6,33.8,5
-0.5742,-0.7992,-0.7303,1.721,67.3,103.6,34.1,7
-0.042,0.0825,-0.0097,0.863,67.7,56.3,33.5,1
-0.4471,-0.0044,0.0296,1.471,66.9,77.0,32.97,5
-0.0247,-0.0768,-0.0328,0.413,75.0,57.7,34.0,1
0.6952,-0.2109,-0.7034,0.6,77.0,96.2,33.92,5
0.2018,0.4819,0.9501,0.795,71.5,101.6,33.62,5
0.0653,0.0306,-0.075,0.285,75.0,77.9,33.88,1
-0.1376,-0.1806,-0.3439,1.811,72.9,84.9,33.63,7
-0.2622,-0.127,-0.3636,0.912,69.8,72.8,33.92,3
-0.7666,-0.2597,-0.5699,0.827,80.7,95.6,33.39,5
-0.0177,0.0022,0.0828,0.083,69.9,47.8,34.23,1
2.2951,-2.9948,-0.3362,2.708,88.3,120.5,33.46,8
3.7526,0.974,-0.671,1.731,77.4,122.9,33.47,7
-2.0093,0.0959,1.2185,2.2,83.7,119.5,33.27,8
0.1993,0.2056,-2.0593,1.899,81.4,94.6,33.85,7
0.0442,0.0273,-0.0129,0.097,66.8,61.7,34.34,1
1.6343,-0.8034,-2.8989,1.809,85.7,110.3,34.01,7
-1.4241,0.6234,-0.6976,2.536,80.4,99.9,33.8,8
-0.018,-0.0416,-0.0177,0.304,69.3,57.6,34.03,1
0.3512,0.2076,-0.2406,1.983,67.4,81.9,33.54,7
0.1609,1.1194,1.8395,2.305,85.1,119.5,34.12,8
0.0288,-0.1326,0.1274,0.348,67.1,51.2,34.12,1
-0.0002,0.0398,-0.068,0.128,65.9,59.0,34.26,1
0.0202,0.3406,0.3472,0.537,70.4,73.9,33.82,2
-0.6861,0.3683,1.3194,2.266,82.9,120.3,34.33,8
0.7197,-0.4492,-0.3036,2.403,76.9,101.7,34.16,8
0.0093,-0.0092,0.0084,0.973,68.9,42.9,33.9,1
-0.0439,0.0475,0.1118,0.074,70.6,51.7,34.34,1
0.0224,0.0126,-0.0638,0.023,66.4,57.0,34.63,1
0.0094,0.0502,-0.0059,0.535,64.3,59.4,33.58,1
-0.0737,-0.0131,0.017,0.914,73.3,62.6,34.41,3
0.9373,1.0728,-0.1994,1.617,66.1,99.7,33.97,7
-0.2175,0.4889,0.4662,2.508,81.4,89.8,33.68,8
0.0195,0.1396,-0.2572,0.521,75.1,64.5,33.65,1
0.3298,-0.2404,0.5456,1.1,67.3,82.6,33.78,5
-0.0194,0.2093,-0.0499,1.498,76.0,79.5,33.79,5
0.1316,-0.0293,-0.1984,1.191,64.4,73.0,33.28,4
-0.0704,-0.4799,-0.8817,1.21,75.1,97.8,34.04,6
0.0047,-0.0273,-0.0025,0.621,57.3,53.3,33.77,1
3.3609,1.4597,1.715,2.289,86.8,111.6,34.17,8
-0.3466,-0.2222,-0.0791,1.517,66.9,72.4,33.97,5
0.0778,0.0073,0.0664,1.438,65.8,50.5,34.08,3
0.0256,-0.08,0.0281,1.765,76.4,53.1,33.95,4
0.1112,-1.3506,-0.3325,1.882,80.4,99.7,32.97,7
-0.2282,0.0394,-0.0698,0.84,72.1,76.7,33.58,3
-0.0313,-0.0274,-0.0335,0.591,62.6,63.0,34.58,1
0.325,0.1189,0.3936,1.965,75.7,94.2,33.84,7
0.0252,0.0048,-0.0345,0.099,77.6,52.6,33.65,1
-1.3288,0.4468,1.468,2.395,86.6,108.0,34.07,8
-0.0546,-0.064,0.0658,1.676,71.8,59.1,33.98,4
0.0774,0.066,-0.0532,1.521,78.8,55.8,34.04,4
2.7261,2.1542,1.4857,3.127,80.8,115.0,33.88,8
-0.0137,-0.1041,-0.004,0.527,72.3,52.0,34.15,1
-3.2418,-0.6711,1.7773,2.554,88.4,120.7,34.2,8
0.11,0.5055,0.4496,2.217,68.3,75.5,33.75,7
-0.2149,0.0659,-0.7627,1.913,78.2,75.0,33.76,6
-0.3846,0.3523,0.0908,0.418,75.0,71.1,33.49,1
-0.0148,-0.0191,0.0155,0.383,65.5,50.7,34.53,1
0.3603,-0.1775,0.0655,2.339,82.4,70.7,33.84,7
0.6317,0.2127,-0.9462,1.6,85.4,96.4,34.1,7
-0.0683,-0.0164,-0.0604,1.641,73.4,58.0,34.76,5
0.0759,-0.114,-0.0987,1.47,78.3,61.5,34.12,4
-0.0014,0.0366,-0.1197,1.308,75.2,44.3,33.89,1
-0.048,0.0484,0.0074,1.722,67.4,51.3,33.45,3
0.04,-0.0126,0.8495,1.38,71.4,73.1,33.63,4
-0.0715,-0.4847,-0.2372,2.757,78.6,93.4,33.57,8
-0.1285,0.6808,-0.244,1.695,69.9,71.8,33.63,5
0.1383,0.0597,-0.1993,1.744,76.8,77.8,33.85,6
-0.8977,1.9741,-2.6664,2.055,82.8,123.1,33.48,8
0.2268,0.1876,0.0012,1.354,73.0,78.2,33.78,5
-0.2234,-0.1523,-0.09,0.131,68.7,68.8,33.84,1
0.0537,-0.085,-0.0965,0.457,75.8,54.2,34.09,1
-0.0067,0.0322,-0.0555,0.348,67.3,52.1,34.17,1
-0.3572,-0.165,0.4559,1.774,73.2,77.7,33.12,6
-0.0065,-0.0273,-0.0144,0.395,67.7,48.0,33.52,1
0.0698,-0.0583,0.0085,0.685,76.8,53.9,33.64,1
-0.4385,0.0981,0.0358,0.378,63.9,74.7,33.53,1
0.1039,0.04,0.4468,0.522,62.4,65.2,34.46,1
-0.3981,-0.4921,0.0473,1.511,74.3,88.1,33.98,6
-0.0001,-0.0402,0.0454,0.501,72.8,47.7,33.41,1
-1.2489,0.7272,-4.3361,1.467,75.8,119.0,33.54,7
0.041,0.0145,0.0207,0.723,70.3,44.4,33.53,1
-0.2595,0.1275,1.5035,1.897,82.0,113.4,34.12,8
-0.007,-1.2867,0.8193,3.326,80.1,118.6,33.42,8
0.0525,-0.0288,0.1051,1.691,66.0,50.2,33.85,3
-1.2753,0.0825,0.8494,1.753,71.9,98.7,33.47,7
-0.0652,-0.0522,-0.0506,1.17,70.2,62.5,34.12,4
0.0315,0.051,0.0613,1.137,72.7,50.6,34.4,2
-0.0313,-0.023,0.0286,0.194,67.9,57.8,33.59,1
0.0139,0.0589,0.0732,0.071,69.6,59.3,34.05,1
0.039,0.0374,0.0658,1.455,72.6,55.2,33.76,4
1.1167,-0.5116,0.2581,1.34,83.8,98.3,33.53,6
-0.0931,0.5237,0.2055,1.197,52.8,81.1,33.58,5
0.0761,-0.064,0.0409,1.336,60.5,54.1,34.17,2
0.0256,0.3283,0.0412,1.328,80.8,103.8,34.0,7
-0.1081,0.0466,0.1164,0.703,70.6,46.2,33.99,1
0.0296,-0.0145,-0.0798,1.121,70.5,56.8,34.08,2
0.0086,0.003,-0.0143,0.396,64.7,56.2,33.92,1
0.0291,0.0621,-0.0287,0.394,74.7,55.3,33.95,1
-0.4134,0.7683,0.577,1.359,69.9,99.8,33.35,6
-0.0149,0.0584,-0.0444,1.758,70.8,58.7,34.18,5
-0.0211,-0.0833,-0.0006,0.534,63.6,53.9,33.88,1
-0.0272,0.3087,-0.3747,1.178,73.0,68.4,32.85,3
0.214,0.136,-0.2203,1.82,77.0,72.7,33.65,6
0.2407,-0.2138,-1.1617,2.102,78.1,94.0,34.05,7
-0.8065,-1.5126,0.3833,0.696,70.4,97.9,33.86,5
-0.4687,-1.2325,0.3438,2.33,80.9,96.5,33.59,8
0.1385,-1.0847,1.0959,1.888,89.3,95.3,33.6,7
-0.0716,-0.1067,-0.2659,0.254,75.1,74.3,33.81,1
-0.2171,0.0771,-0.2472,0.405,77.9,95.7,34.16,5
0.1658,-0.4116,-0.5727,2.144,79.0,96.6,33.78,8
-0.0912,0.061,-0.0425,0.892,74.6,52.0,33.9,1
-0.2929,-0.6666,-0.187,0.185,75.2,93.1,33.74,3
0.0294,0.0093,0.0666,0.03,70.5,55.7,34.52,1
-0.0479,-0.0377,-0.0033,0.576,63.0,49.5,34.11,1
0.03,0.0518,0.0175,0.499,68.0,55.1,33.7,1
-0.2791,0.2746,-0.1138,1.4,80.4,78.8,33.67,5
-0.0248,-0.0332,-0.0078,0.177,72.1,55.6,33.68,1
-0.05,-0.0096,-0.0123,1.05,66.8,59.5,34.38,3
0.0719,0.0544,-0.1748,0.316,75.6,74.8,33.51,2
1.356,0.1376,-0.7612,2.285,74.8,95.7,34.36,8
0.0773,0.0449,0.0684,1.239,66.0,59.4,34.46,3
0.036,0.1246,0.4173,0.631,72.1,81.5,33.34,3
0.0947,-0.0229,0.1015,0.185,78.4,55.1,33.93,1
0.2747,1.3006,0.7755,1.391,75.4,96.1,33.53,6
-0.4305,1.7283,0.9107,0.818,67.4,90.4,33.29,4
0.0682,0.0317,0.0156,0.345,77.9,46.4,33.99,1
0.0625,-0.1608,-0.1924,0.955,79.0,86.6,34.19,5
-0.3459,-0.003,0.326,0.985,71.9,78.6,33.73,4
-0.0416,0.0088,-0.0225,0.484,65.5,58.5,34.21,1
0.0015,0.0176,0.0336,0.655,79.3,48.2,34.53,1
0.022,0.0037,-0.0068,0.105,77.4,49.5,33.87,1
0.0298,-0.0506,0.0256,0.635,67.5,50.9,33.67,1
0.0029,0.0778,-0.0913,0.794,64.4,51.3,34.12,1
-0.1293,0.2307,1.0886,1.93,70.8,94.6,33.77,7
-0.0413,-0.0985,-0.0122,0.892,76.3,47.8,34.75,1
0.052,0.0584,0.036,0.32,67.5,54.0,33.3,1
-0.0638,0.0094,-0.0117,0.411,64.8,56.7,33.92,1
0.3152,0.4936,-0.3956,1.031,65.5,79.2,34.35,5
-0.2171,-0.1988,0.2602,1.002,74.5,78.9,33.41,4
0.9353,-0.9874,-2.3096,1.094,82.4,111.5,34.08,6
0.2322,-0.1065,0.007,1.165,72.9,78.2,33.91,5
0.051,0.0494,0.0066,1.347,64.1,52.4,34.32,2
0.1127,-0.1363,-0.3116,0.869,76.7,84.5,33.65,4
0.2385,0.1561,0.8265,1.462,70.5,97.5,33.93,7
-0.0129,-0.0211,0.07,0.104,67.5,56.2,33.94,1
0.0318,0.0201,0.0607,0.582,66.7,50.0,33.55,1
-0.0209,0.0077,-0.064,0.958,63.8,56.6,34.24,1
0.0885,0.0203,0.0084,0.63,63.9,59.3,34.16,1
0.0366,0.0829,-0.0492,0.823,63.3,51.7,34.38,1
-0.0796,0.039,-0.026,0.216,67.1,53.2,33.91,1
-0.3014,0.2035,-0.4865,1.07,79.8,81.4,33.77,5
-0.4753,-0.0084,-0.1954,0.909,79.4,75.3,34.32,4
-0.2879,0.5344,0.1899,1.655,83.0,93.6,33.82,7
-0.0747,0.0012,0.1278,1.004,72.3,51.6,34.89,2
-0.1411,0.355,-0.0608,0.218,72.3,69.9,33.58,1
0.017,-0.0557,-0.0039,0.877,74.8,53.2,33.95,1
0.0184,0.0112,0.001,1.139,75.5,63.4,34.43,4
0.0361,-0.0159,0.0394,0.382,76.0,54.4,33.79,1
0.0185,-0.2626,-0.3778,1.528,76.2,78.5,34.05,6
0.4547,0.5302,0.2599,1.61,76.0,91.1,33.44,7
0.0294,-0.5237,0.339,2.049,76.5,101.9,33.78,8
0.0301,-0.0303,0.0287,0.848,71.1,49.3,34.17,1
0.1197,-0.0181,-0.0217,2.163,69.4,52.1,33.94,5
-0.1908,0.27,-0.0116,0.731,72.8,76.5,33.73,3
0.0378,-0.0277,0.0629,1.176,80.8,55.2,33.74,2
0.0328,0.0925,-0.0529,0.864,73.1,60.3,33.91,2
-0.4432,0.0193,0.474,1.94,72.8,76.4,34.03,6
-0.0475,0.2694,-0.1349,2.277,67.6,81.1,33.75,7
-0.0257,-0.0669,0.0552,1.006,70.2,61.0,34.02,2
-0.0316,0.0219,-0.0132,0.229,64.2,56.2,34.28,1
-0.3291,0.0489,-0.7721,1.075,71.3,68.6,32.85,2
-0.3247,-0.4852,0.323,0.086,73.0,74.5,33.75,1
-0.1054,0.0577,0.0448,0.866,66.8,58.3,34.18,2
0.9392,-0.5524,0.2122,2.492,74.3,90.1,33.62,8
0.6693,1.9874,-1.8986,0.939,66.9,90.6,33.23,3
0.0214,0.0067,0.0206,0.514,70.7,55.7,33.63,1
-0.0751,-0.0276,-0.0001,1.233,73.1,52.1,33.74,3
-0.0809,0.0467,-0.5859,0.194,84.7,78.4,33.32,2
-0.8774,-1.0904,-0.642,2.099,74.1,95.0,34.19,8
-0.0022,0.0935,-0.72,1.001,73.9,77.9,33.75,3
-0.065,-0.0075,-0.0744,2.131,73.4,53.0,33.79,5
-1.1352,0.5037,-2.3335,2.445,85.0,117.6,33.31,8
0.5378,-1.2802,0.4785,1.224,81.1,91.4,33.94,6
-0.0242,-0.0812,-0.0027,0.988,68.9,47.5,33.42,1
0.0545,-0.015,0.0348,0.748,60.9,50.4,33.61,1
-0.3436,0.4307,-0.8289,0.905,74.8,93.0,33.9,5
0.0978,0.2498,0.7495,0.636,62.3,75.9,34.23,3
-0.4855,-1.5753,-0.5596,2.202,76.1,84.4,33.99,7
-1.806,0.1447,-0.1485,2.211,77.5,100.6,33.76,8
-0.0283,-0.1325,-0.1039,0.944,72.5,66.5,33.63,3
-0.0341,-0.0539,-0.0152,1.108,65.9,59.8,34.24,2
-0.0194,-0.0813,0.0432,2.321,72.5,59.6,33.9,6
-0.6319,1.1985,-0.2752,1.809,75.0,113.7,33.39,8
0.0106,-0.0732,-0.0447,0.489,70.8,56.3,34.16,1
-2.1421,0.4185,-1.7902,1.234,71.2,107.6,34.17,6
-0.4611,-0.146,-0.6226,2.747,92.4,96.0,33.52,8
-0.4075,-0.2496,-0.2261,1.028,76.0,74.2,33.98,4
0.2638,-1.0314,0.4833,1.858,68.8,101.4,33.72,7
0.0074,-0.1308,-0.0362,1.269,80.2,74.0,33.09,5
0.049,0.0185,-0.0653,0.858,70.2,50.6,34.39,1
0.4807,-0.3674,-0.3493,0.875,78.1,73.2,33.91,3
0.0031,-0.025,0.024,0.21,77.8,52.0,34.01,1
0.2246,-0.1067,-0.1942,0.486,71.3,74.5,33.67,1
-2.1686,-1.5076,-1.3979,1.266,84.5,119.4,33.65,7
0.0486,0.0727,-0.0418,0.632,62.0,49.9,34.1,1
0.6321,-1.5543,-0.3813,1.907,73.2,100.8,33.85,7
0.0713,-0.0824,-0.0291,0.974,64.4,52.5,34.17,1
0.0232,-0.0186,0.0601,0.024,57.7,55.7,33.79,1
0.0391,0.1005,-0.128,0.703,65.7,47.5,33.75,1
-0.1761,0.6114,-0.2418,1.725,73.1,68.5,34.11,5
0.0131,-0.0107,0.0258,1.339,69.0,60.8,33.59,3
0.0933,0.1419,-0.0106,0.933,68.1,53.8,33.63,1
-0.3811,0.1731,-0.0051,1.009,75.1,68.8,33.87,3
-0.0746,0.0486,-0.018,0.083,69.3,53.2,34.07,1
0.044,-0.0198,0.0422,0.54,69.4,57.3,33.93,1
0.8762,-0.0217,0.4688,2.384,74.6,103.1,33.18,8
-2.6748,-0.5222,0.71,1.499,84.6,122.1,33.67,7
0.008,-0.0917,0.057,0.391,70.8,47.1,33.89,1
0.0168,-0.2198,-0.5139,1.623,67.3,72.9,33.74,5
0.0239,-0.0,-0.0367,2.126,73.0,52.4,33.95,5
-0.0731,-0.0163,0.0069,0.131,69.9,59.8,33.74,1
-0.2866,0.0783,-0.3892,1.878,69.2,67.4,33.69,6
-0.1977,-0.5987,-0.5612,1.891,86.8,97.4,33.74,7
0.0101,-0.0376,-0.0206,0.774,75.1,59.8,34.29,2
1.5842,-6.2353,1.1006,1.777,80.9,120.4,33.46,7
0.1374,-0.3909,-0.135,2.406,83.2,97.7,33.56,8
-0.2943,0.1614,-0.0622,1.113,79.5,76.4,34.31,4
-0.0046,-0.0376,-0.0704,1.291,74.3,55.7,33.99,3
-2.5304,1.1013,1.1058,2.259,82.3,119.2,33.63,8
0.5786,0.1392,-0.0584,0.84,70.5,77.6,33.58,3
0.0558,-0.0805,0.0024,1.414,72.0,58.7,34.04,4
0.6913,0.0105,-0.2649,1.567,75.2,95.2,33.88,7
0.0007,0.0237,-0.0558,1.337,71.2,61.5,34.05,3
-0.5152,0.2579,0.1982,1.175,74.7,74.7,33.58,4
-0.7246,0.8942,0.2605,1.661,77.1,97.1,33.71,7
0.3329,0.36,-0.1407,1.315,87.9,93.9,34.31,6
-0.6931,0.0354,0.5497,1.936,68.9,95.3,33.62,7
0.4981,-0.9155,0.0045,2.263,67.0,100.5,33.64,8
-0.6169,0.2387,0.125,0.441,70.7,76.2,33.74,1
0.0586,0.0297,0.0341,0.913,76.1,57.8,33.69,2
-0.1057,-0.0381,0.0734,0.255,61.9,56.6,33.66,1
-0.2221,-0.0972,-0.0752,1.127,72.1,78.7,33.71,5
-0.1909,0.7683,0.0683,2.299,76.0,95.0,34.01,8
0.3027,1.4526,-0.0423,1.07,74.8,90.3,33.65,5
0.0177,-0.0152,-0.024,0.884,72.5,53.9,33.9,1
-0.7921,-0.8522,0.9735,1.207,73.4,86.2,32.97,5
0.7864,0.7345,0.0287,2.37,86.8,85.6,34.03,8
-0.545,-0.1408,0.0524,1.443,72.0,77.4,34.19,6
-0.1344,0.3192,0.2503,3.089,68.1,99.8,33.81,8
-0.2866,0.0012,-0.2499,0.851,74.0,64.9,33.88,2
-0.0066,-0.4312,-0.347,1.068,79.1,72.6,33.68,3
-0.0223,0.2291,-0.1486,1.359,67.9,73.1,33.66,4
0.9181,0.7439,-0.2115,1.182,79.8,96.9,34.22,6
-0.0476,0.041,-0.0638,0.684,67.9,61.5,33.69,1
0.0464,-0.6527,-0.4508,1.905,75.2,65.7,33.64,5
0.4357,-1.1233,0.5612,0.915,65.3,97.8,33.52,5
0.1134,0.0322,0.0257,0.336,68.1,54.6,33.66,1
0.0237,0.0426,0.0717,0.202,71.1,54.1,34.31,1
-0.0368,-0.9689,-0.3454,1.395,80.4,94.0,33.23,6
-0.1422,-0.3814,-0.2577,0.337,72.8,76.2,33.89,2
0.0005,-0.0128,-0.0208,2.184,62.5,51.7,34.36,5
-0.0187,-0.5237,-0.8829,1.24,77.7,99.4,33.47,6
0.0165,0.0069,-0.0227,0.853,67.5,50.4,34.43,1
-0.0723,0.0235,-0.0011,0.734,67.0,59.7,34.3,2
-0.0778,-0.0214,-0.047,0.198,68.5,43.0,33.99,1
0.0724,0.0009,0.0054,0.572,70.3,56.6,33.99,1
-0.2503,0.156,-0.3651,1.334,61.9,79.5,33.23,5
0.079,0.0163,0.0892,0.784,66.5,54.5,33.54,1
0.0973,0.0334,0.0833,1.366,74.8,63.0,33.99,4
0.3064,0.5546,-0.2146,1.285,80.6,70.9,33.97,4
-0.0449,-0.0833,-0.0914,1.004,72.5,58.4,34.13,1
-0.0416,0.003,0.0073,0.179,70.2,59.2,33.51,1
0.8877,-1.3206,-0.5381,2.094,78.8,88.5,33.78,7
-0.5669,-0.0997,0.1726,1.512,73.4,96.9,33.39,7
-0.0464,0.0526,0.0034,0.276,61.1,58.3,34.67,1
0.0152,-0.0364,0.0566,0.131,65.5,63.6,33.69,1
0.9082,-1.2992,0.1722,3.001,76.9,85.7,33.95,8
-0.2606,-0.1595,-0.1979,1.321,68.6,80.1,33.25,5
-0.049,-0.2673,-0.157,1.078,72.6,75.4,33.81,4
0.0771,0.0681,-0.2168,0.749,79.1,61.0,33.55,1
0.0562,0.0137,-0.0202,0.153,66.3,63.4,33.53,1
0.0489,-0.0195,-0.0591,0.656,69.7,46.0,34.02,1
-0.043,0.0514,-0.0258,0.938,73.8,51.1,33.84,1
-0.077,0.0859,0.0041,1.51,72.1,62.3,34.4,4
-0.4919,-0.197,-0.0797,0.135,76.0,68.2,33.63,1
-0.173,-0.1955,-0.3889,2.087,82.0,96.0,33.2,8
-0.3733,-0.8912,-1.4991,0.003,81.8,91.4,33.79,2
1.0751,0.2491,0.6256,0.377,77.3,97.9,33.64,4
-0.3471,0.0773,0.0005,0.016,68.8,72.1,33.0,1
-0.0342,-0.0287,-0.0228,0.291,75.2,47.9,33.62,1
0.1734,-0.5741,0.6139,2.006,78.7,92.6,33.92,7
-0.0156,-0.0443,-0.0925,0.295,65.6,51.5,33.87,1
-0.1316,-0.322,-0.1941,1.138,70.4,67.1,33.39,2
0.3643,-0.7308,0.7873,1.343,74.2,92.1,33.43,6
0.0233,0.203,-0.1186,0.513,69.7,78.6,33.95,2
0.0651,0.0167,0.0171,0.353,67.9,57.7,33.75,1
1.1879,0.4055,-0.2835,0.98,78.1,98.5,33.47,6
0.1299,1.6058,-0.1481,1.095,73.9,95.3,34.51,6
-1.6337,0.2952,1.104,2.675,76.5,97.0,34.32,8
0.5102,-0.717,-0.0858,1.209,80.8,93.1,33.95,6
-0.3354,0.048,-0.2171,1.273,85.2,72.1,33.59,4
0.1023,0.0867,0.0075,0.904,65.7,51.5,33.98,1
0.0741,0.03,-0.0462,0.295,66.0,52.0,33.8,1
0.2969,0.1909,-0.0257,1.553,79.0,71.6,33.22,5
0.6544,1.0293,0.3813,3.11,76.8,91.5,33.14,8
-0.06,0.0248,0.039,0.052,82.1,51.7,34.01,1
0.1368,-0.6555,0.3875,1.917,72.0,91.5,33.89,7
0.3912,0.4734,-0.649,1.811,74.6,87.3,33.65,7
-0.0438,0.0317,0.0459,0.383,66.4,52.6,34.51,1
0.0311,-0.058,-0.0469,0.983,64.4,58.7,34.35,2
-0.8324,-0.0232,-1.0233,1.494,85.5,110.2,33.9,7
-0.5603,-0.4544,0.5446,2.789,77.7,102.5,33.79,8
0.1014,-1.3167,-0.2828,3.025,72.7,100.0,33.72,8
-0.305,0.1105,-0.3443,0.12,72.9,77.4,33.88,1
0.012,-0.0264,0.022,1.264,68.2,56.8,33.78,3
-0.2101,0.6206,0.6337,1.123,84.4,100.8,33.45,6
0.0235,-0.404,0.2875,0.827,74.2,73.5,32.91,2
0.6508,-0.8325,0.2857,1.26,79.1,99.5,33.69,6
-0.2975,0.157,-0.0925,1.13,74.5,77.1,33.86,5
-0.7906,0.0951,-1.2906,1.609,77.1,88.0,33.33,6
0.2153,-0.3036,0.1457,2.355,72.0,82.0,33.68,7
-0.061,0.0464,0.038,0.407,71.7,56.8,34.22,1
0.0371,-0.0192,-0.0888,0.328,66.9,48.3,33.91,1
-0.0804,0.1776,-0.2987,0.394,64.9,75.3,34.06,1
0.031,0.1045,0.0179,0.176,69.6,53.9,34.11,1
0.028,-0.0055,0.0209,1.32,71.7,65.3,34.11,4
0.0675,1.4018,2.8082,2.246,81.1,118.8,34.03,8
0.0408,0.0101,0.0311,0.378,67.9,55.7,34.33,1
-0.0255,-0.0634,0.0045,0.483,76.9,50.6,33.58,1
1.1415,0.1565,-0.8878,2.68,83.0,118.0,33.8,8
-0.1747,-0.5661,1.1564,2.134,84.7,119.8,33.65,8
1.4009,-0.1825,0.5939,1.101,78.5,90.4,33.33,5
0.1208,0.2088,-0.2207,0.814,74.2,71.8,33.9,3
1.2162,0.0025,0.5397,2.08,83.0,119.9,33.44,8
0.2831,-0.4231,-0.4396,0.713,69.3,72.2,33.71,2
-1.4585,0.0657,0.3663,1.495,83.5,84.1,33.15,5
0.1294,-0.0517,-0.0073,0.397,63.0,51.8,34.44,1
-0.0692,-0.0884,-0.0166,1.103,68.2,61.9,34.41,3
0.2714,0.5949,-0.4438,1.525,71.3,69.4,33.73,4
1.9043,0.8406,-0.344,2.749,88.7,117.8,33.32,8
-0.0478,-0.0258,0.021,0.358,68.9,49.5,34.45,1
-0.032,0.1975,-0.1445,1.055,78.7,76.2,32.9,3
0.0137,0.0221,0.0613,1.01,66.6,53.3,34.22,1
0.3725,-0.0956,-0.6343,3.037,77.2,110.9,33.49,8
-0.6369,-0.0424,-0.1975,2.133,74.1,95.6,33.89,8
1.1272,-1.5,-0.6828,0.483,83.9,99.8,34.49,5
-0.0718,-0.0071,0.032,0.005,68.7,55.5,33.86,1
0.7808,-0.0735,1.2689,1.591,74.3,93.5,34.1,7
-0.6163,0.4256,-0.429,1.31,69.9,99.7,34.03,7
0.0236,0.0076,0.0507,0.6,61.3,49.0,34.58,1
1.1074,1.7748,3.0086,2.845,74.8,117.4,33.8,8
-0.7734,-0.2234,1.0799,1.617,80.6,106.0,34.18,7
0.3135,0.101,0.4199,1.614,84.9,122.3,33.53,8
1.3116,0.492,3.4903,2.057,90.1,118.9,33.83,8
-0.1642,0.2148,0.1783,1.353,74.2,77.1,34.02,6
-0.3466,-0.2984,-0.1382,0.999,66.0,97.2,33.7,6
-0.742,0.7648,-2.1004,2.236,86.5,118.4,33.8,8
0.0111,-0.0015,0.1045,0.063,69.9,54.0,33.99,1
0.4248,-0.0682,-0.4053,2.733,72.2,90.5,33.49,8
0.001,0.2485,0.3423,0.541,77.3,59.2,33.97,1
0.0364,0.002,0.0019,0.7,70.2,50.9,34.67,1
0.116,0.2706,-0.5102,0.761,76.3,72.9,33.73,2
-0.0126,-0.9901,-0.2422,0.252,72.2,100.7,34.07,5
-0.3059,0.251,-0.1333,0.668,71.2,80.1,33.53,3
-0.0623,-0.0417,-0.0345,0.218,78.7,50.5,34.12,1
0.1541,0.1115,0.0345,0.122,73.4,70.9,33.6,1
0.6244,0.1141,-0.5092,2.038,72.7,80.6,33.9,7
-0.0876,-0.3365,-0.3121,1.116,62.3,81.8,33.31,4
-0.0651,-1.7288,2.0447,3.876,87.1,122.4,33.61,8
-0.04,-0.0887,0.0443,1.197,70.3,44.9,33.72,1
0.2835,1.0293,0.3614,2.189,84.2,90.3,33.56,7
0.4962,-0.0053,-0.4089,1.429,71.2,70.9,33.86,4
0.0349,0.0718,0.0367,1.531,70.7,57.1,33.36,3
0.146,0.0027,-0.0372,0.163,74.3,69.5,33.7,1
0.0087,0.0421,0.0277,0.266,62.1,66.1,34.11,1
0.4695,0.1889,0.0863,1.214,71.4,66.4,34.0,4
0.3048,0.1328,0.0972,0.829,73.9,80.0,33.43,3
-2.1414,-1.4358,-2.4408,2.913,80.6,118.4,33.85,8
-0.024,-0.0024,0.0112,0.357,73.9,55.8,33.88,1
-0.0723,-0.0343,-0.0583,0.167,61.7,54.3,34.56,1
-1.2346,-1.6394,0.8426,2.443,73.4,113.5,34.01,8
0.0052,-0.0537,0.0435,0.555,74.9,60.7,33.57,1
0.5075,-0.2723,-1.4277,2.172,73.7,101.3,33.56,8
0.6293,-0.4943,0.2658,2.541,80.8,97.1,33.23,8
-0.2028,-0.2713,0.201,0.989,66.7,93.9,33.78,6
-0.0273,0.0053,0.0062,0.354,70.5,58.5,33.46,1
-0.79,0.7097,-0.0749,1.456,75.4,87.0,34.0,6
0.1295,0.0907,-0.0297,1.56,73.9,56.2,33.67,3
-0.8313,-0.0692,0.6627,1.312,73.7,97.5,34.22,7
-0.0725,0.0164,-0.0016,2.398,65.8,53.5,33.77,6
-0.0093,0.1032,0.0322,1.624,72.3,53.3,33.7,3
-0.2339,-0.0255,0.1212,0.596,63.0,72.8,33.5,2
-0.0525,0.0253,0.0111,0.818,62.3,50.5,33.83,1
0.0776,0.3004,0.4552,1.049,61.7,71.0,33.55,3
1.3202,-0.2403,-1.2861,2.475,80.6,111.2,33.6,8
-0.0839,0.0476,0.035,0.356,69.8,45.6,33.66,1
0.0947,-0.0623,-0.0483,0.688,71.0,50.9,34.23,1
0.3233,0.1473,-0.7049,2.143,76.5,95.3,34.33,8
-0.0733,-0.0778,0.151,1.011,61.4,80.2,33.25,4
-0.2345,0.0319,-0.1404,1.789,69.5,77.2,33.97,6
-0.0225,-0.0187,-0.0066,1.655,71.9,46.8,34.45,3
0.6533,-0.0835,-0.1308,0.851,68.9,81.0,33.74,3
0.0692,-0.0571,0.0122,0.366,68.4,49.0,33.8,1
0.3972,-1.3823,0.8159,2.292,76.5,97.1,33.6,8
-0.0617,-0.1117,-0.0186,2.431,73.0,50.1,34.26,5
-0.0513,0.1206,-0.0192,0.596,64.7,55.4,33.81,1
-0.5961,-0.6342,0.6513,0.037,77.7,95.0,34.39,3
0.3078,-0.8902,-0.8764,2.42,82.7,98.7,34.19,8
-0.8714,-2.2246,1.3986,2.454,86.1,114.4,33.15,8
0.2038,0.2762,-0.1466,0.716,67.3,75.1,33.59,2
-0.3273,0.5376,0.3834,1.381,76.3,80.8,34.12,6
0.0475,-0.0006,0.075,1.969,76.1,46.2,34.27,4
0.0455,0.206,-0.1879,1.285,73.0,102.6,33.7,7
1.1372,0.8195,-1.5535,0.985,78.6,114.6,33.53,6
0.2361,0.3754,0.3584,1.196,70.8,80.5,33.98,4
-0.4164,-1.1928,0.7725,2.587,77.3,91.8,33.79,8
-0.2319,1.0161,-0.9373,2.008,73.7,93.4,33.91,7
0.0258,0.039,-0.0865,0.23,71.0,47.9,34.1,1
0.0414,0.0502,0.009,0.265,71.1,52.5,34.05,1
0.0649,-0.031,-0.0025,0.452,72.7,60.1,34.47,1
0.0767,0.0869,-0.0296,0.734,70.4,50.0,33.74,1
0.0197,-0.0157,-0.0459,0.045,66.5,50.3,34.1,1
0.2698,-0.0572,0.4735,2.088,70.0,73.9,33.92,7
-1.0681,-0.1109,0.3878,3.063,75.7,114.1,33.64,8
-0.0182,0.2372,0.4822,1.961,82.8,75.8,33.79,6
0.003,0.0179,-0.0246,0.961,60.8,61.5,33.65,3
-0.0057,0.0421,0.0391,1.469,66.3,45.6,33.76,1
0.0241,0.0318,-0.0028,1.492,70.7,54.5,33.95,2
-1.4499,-2.5,1.3265,1.754,79.3,114.9,33.45,7
-0.0381,0.336,0.3147,2.932,69.4,78.0,33.28,8
-0.0295,0.0555,0.0195,0.292,70.0,61.9,33.7,1
-0.3672,-0.9621,0.6108,1.082,88.1,93.4,33.83,6
-0.0919,0.0391,-0.001,1.743,74.7,53.9,34.04,4
-0.5677,-1.3618,0.9359,2.448,83.7,98.5,33.56,8
-0.635,0.3623,-0.1497,1.339,66.0,75.3,33.08,4
0.0714,-0.3389,0.6121,1.463,79.6,86.4,33.87,6
-1.1294,-0.0437,-0.5549,1.928,73.1,124.1,34.12,8
0.0317,-0.0301,-0.0711,0.169,69.0,59.2,34.28,1
-0.5396,0.7517,-0.0518,1.174,75.1,103.7,33.59,6
0.3173,0.6098,0.406,0.157,64.4,68.0,34.25,1
0.0499,-0.0353,0.0537,1.436,65.2,52.4,33.88,3
-0.606,-0.6977,1.9913,2.621,74.0,94.9,33.62,8
0.0826,0.0181,0.002,1.447,70.7,51.7,33.98,3
-0.0812,0.0634,-0.1162,1.558,77.5,61.5,33.52,3
0.0473,-0.0689,-0.031,0.42,66.8,54.3,33.9,1
-1.0134,0.787,-0.3646,1.547,81.2,95.9,34.02,7
-0.0081,-0.0548,-0.0688,0.304,66.1,51.1,34.27,1
-0.1476,0.0967,-0.0728,1.957,73.5,81.4,33.32,7
-0.0951,-0.0288,-0.0092,0.418,72.4,50.3,34.66,1
-0.3772,0.3624,-0.071,1.663,73.9,76.2,33.35,5
0.0045,-0.0057,-0.0104,1.582,75.7,51.7,33.79,3
0.0242,0.0974,-0.0176,1.402,71.6,49.7,34.16,3
-0.3953,0.0691,0.1308,0.814,80.1,82.7,33.39,4
-0.0411,-0.587,1.0191,2.36,71.5,91.6,33.75,8
0.4723,0.1982,0.0965,1.263,80.8,71.0,33.31,4
-0.0722,-0.2713,-0.3555,0.811,71.0,77.1,33.65,3
0.0354,0.0008,0.1222,0.77,70.6,49.6,33.88,1
0.3914,0.1233,-0.4578,0.085,85.9,76.0,33.95,1
0.0529,-0.0361,0.0453,1.239,65.3,53.1,34.31,2
-0.2402,0.1087,0.768,1.095,71.1,78.1,33.21,3
-0.1201,-0.4262,-0.3422,0.862,86.8,80.6,33.87,4
0.025,0.5174,-0.0007,0.556,69.7,73.7,34.3,2
-0.1184,-0.0895,0.0367,1.185,71.1,60.1,33.65,3
0.0114,0.0114,0.0071,0.705,70.5,43.6,34.41,1
-1.3182,-1.782,-2.6454,3.157,90.5,115.5,34.14,8
0.0138,0.0085,0.0186,0.294,63.6,57.8,33.53,1
-0.0063,-0.0084,-0.0674,0.359,67.1,53.4,33.89,1
0.0178,-0.0689,0.1087,0.871,68.6,63.7,33.78,2
-0.4105,0.4981,-1.2761,0.664,77.4,95.9,33.83,5
-0.3852,0.2443,0.0028,0.58,74.1,94.2,33.49,5
-0.4262,0.2877,0.1559,1.305,73.0,79.2,33.28,4
0.0421,0.008,-0.0259,0.039,75.0,52.3,33.97,1
1.7529,0.5664,0.4243,1.16,75.9,96.1,33.92,6
-0.1592,-0.376,-0.0845,0.012,68.0,78.1,33.62,1
0.3196,-0.1797,0.1532,0.166,73.6,74.3,33.63,1
-0.0539,-0.3266,0.304,1.841,76.2,77.0,33.81,6
0.0858,-0.0072,0.0114,1.776,69.1,55.9,33.9,4
-0.3501,0.6464,-0.3937,1.256,68.4,81.6,33.74,5
-0.0184,0.1104,-0.0212,0.42,66.1,61.0,34.25,1
-0.0884,-0.0204,0.0398,0.325,69.3,47.6,33.99,1
-0.3082,0.1435,0.0067,2.055,68.8,77.6,33.52,7
0.1287,0.1864,0.3673,1.349,71.5,75.3,33.41,5
0.0398,-0.0346,-0.0373,1.05,75.9,56.7,34.25,2
-0.0542,-0.083,0.2586,1.971,69.0,68.6,33.75,6
0.0464,-0.3549,0.2001,2.021,75.8,82.6,34.02,7
0.9081,0.5695,1.0676,0.938,79.3,115.8,33.58,7
-0.4071,-0.2065,-0.1715,0.986,67.0,74.2,33.83,4
-0.0281,0.0401,-0.0575,1.164,68.6,42.0,34.24,1
-0.1205,0.3295,0.3229,2.037,65.7,72.2,33.64,6
-0.0041,0.0593,-0.0032,1.743,63.5,53.3,33.52,3
-0.0424,-0.0524,-0.0074,0.885,76.8,60.7,34.41,1
-0.7586,0.0972,0.0523,1.466,76.6,92.9,33.43,6
2.3833,0.5101,3.8528,1.974,88.8,122.3,33.55,8
0.1976,1.0288,0.6972,2.09,80.9,101.9,33.47,8
0.0553,-0.4135,-0.4262,1.118,80.4,74.4,33.86,4
-0.274,0.1221,0.136,0.597,69.8,82.0,33.5,3
-0.0426,0.0461,0.017,0.153,75.1,51.9,33.86,1
0.06,0.5833,-0.0833,1.28,70.8,74.5,33.19,4
-0.0061,-0.0279,-0.0158,0.804,73.8,54.3,34.03,1
3.0115,-2.0581,0.6803,2.418,83.1,121.9,33.28,8
0.0827,-0.1663,-0.3368,1.698,68.4,72.6,33.46,5
0.0228,0.0038,0.0792,2.114,62.2,50.1,34.55,5
-0.0599,0.7648,0.0646,1.074,74.4,100.0,33.67,6
-0.005,-0.0166,-0.0156,0.981,81.0,76.5,33.47,4
0.7309,-0.2063,0.5489,1.182,75.9,97.0,34.35,6
0.0112,-0.111,-0.043,1.123,69.6,58.0,33.69,2
-1.3084,0.2901,-0.9652,2.147,84.6,122.5,34.15,8
0.0388,0.0662,-0.0517,0.784,85.3,59.9,33.7,1
-0.0123,-0.0321,0.0365,0.525,72.1,60.2,33.72,1
0.2189,-0.1996,-0.45,2.015,67.0,84.3,33.83,7
0.0641,-0.0907,-0.4271,0.986,75.0,75.5,33.56,4
0.6581,-2.5614,0.5349,3.254,80.4,113.5,33.7,8
0.0152,-0.0176,0.0058,1.118,75.6,61.5,33.93,3
-0.0005,0.0027,-0.0108,1.853,74.2,58.3,33.9,4
-0.4374,1.7748,1.756,1.401,76.0,115.3,33.32,7
0.0368,0.2545,-0.4192,0.834,76.7,75.3,34.07,4
0.2093,0.2708,0.7456,2.221,73.1,90.7,33.91,8
0.3944,0.6197,0.4609,2.301,74.1,93.8,33.56,8
0.0222,-0.0022,-0.0491,0.4,68.3,55.7,33.2,1
0.2641,1.3649,0.7388,1.853,79.7,100.0,33.72,7
-0.0071,-2.0825,1.6766,1.46,73.3,101.1,33.76,7
0.0037,-0.0579,-0.0003,0.971,73.7,50.2,33.69,1
-0.0158,0.0261,-0.0267,0.778,69.8,56.0,33.73,1
-0.062,0.0932,0.0519,0.285,75.6,54.2,34.23,1
0.0956,-0.245,0.3332,1.233,73.4,79.5,33.8,5
-0.4387,0.3272,0.1775,1.271,76.5,72.1,33.58,4
-0.0015,0.091,0.0159,0.14,73.5,56.3,33.97,1
0.0044,-0.0146,0.0384,0.435,80.7,61.6,34.13,1
-1.7428,-0.8677,-1.0921,2.395,79.7,113.3,33.3,8
0.0062,-0.0369,0.0421,1.117,72.2,63.8,34.27,3
0.0538,-0.0632,-0.0457,1.94,68.0,56.7,34.66,5
0.2914,0.2194,0.1333,1.138,72.2,81.8,33.21,4
0.9461,0.5586,-0.4845,1.721,79.5,93.1,33.79,7
-0.4725,0.0825,-0.025,0.405,73.3,67.1,33.71,1
-0.0234,-0.0165,0.0375,1.319,70.5,53.0,34.33,3
0.2007,-0.3262,0.3189,0.446,80.5,68.8,33.26,1
-0.0538,0.018,-0.0429,1.427,67.9,50.3,33.99,2
0.0183,0.0541,-0.042,1.416,75.3,60.1,34.37,4
-0.1302,-0.8177,0.5283,1.565,85.8,93.7,33.28,7
0.0959,0.0221,-0.01,0.024,71.2,50.6,34.15,1
-0.2012,-0.1479,-0.2357,2.037,72.5,76.6,33.86,7
0.0467,0.1402,-0.1025,1.494,73.1,74.5,33.8,5
-0.0443,-0.1349,-0.0461,0.852,66.6,56.6,34.5,2
0.0196,-0.0393,-0.0466,1.074,81.1,60.0,34.11,2
-0.4955,0.8523,-0.5553,1.377,69.4,97.2,33.48,6
0.079,0.0327,-0.0658,0.291,63.9,47.5,33.32,1
0.0092,0.0399,0.023,1.34,67.0,57.7,34.03,3
-0.4119,0.085,0.1146,1.664,74.8,73.9,33.6,6
-0.1331,-0.3865,-0.6716,1.124,81.1,108.4,33.58,7
0.6382,0.3351,-0.3197,2.812,67.6,70.0,33.95,7
-0.0829,0.0072,0.0133,1.852,72.4,47.3,34.56,4
0.0843,-0.057,0.064,0.426,65.4,52.1,33.86,1
0.0385,-0.099,0.1103,0.612,64.4,59.6,33.87,1
-0.0546,0.0018,0.0073,0.523,72.9,61.0,33.67,1
1.3533,2.0819,1.0031,1.467,81.7,111.0,33.62,7
0.288,-4.005,0.198,1.884,84.9,123.4,33.66,8
-0.1058,-0.016,0.0053,0.531,70.5,46.8,34.16,1
-0.872,-1.6432,-0.7122,1.557,82.1,88.6,34.24,6
-0.0443,0.1056,0.0318,1.659,69.7,64.3,34.48,5
0.6915,0.1459,0.1977,2.643,72.7,102.6,33.66,8
-0.0104,0.036,0.0257,1.342,66.0,56.9,33.98,3
-0.0807,0.2163,-0.0721,0.713,82.6,78.7,33.26,3
2.9136,2.9974,-0.7041,2.016,84.0,124.5,34.33,8
-0.1332,0.1111,-0.3473,1.3,87.6,99.5,33.61,7
-0.7374,1.2239,-2.0429,2.522,72.3,114.3,34.0,8
-0.0352,-0.0772,0.0623,1.152,71.8,58.6,33.69,2
1.6534,-0.0161,1.7504,1.799,83.1,111.8,34.17,8
0.7122,1.5323,1.0501,1.496,79.1,113.8,33.1,7
0.0118,0.0239,0.0287,0.617,69.1,52.4,33.28,1
0.1179,0.0753,-0.0276,2.584,75.9,73.5,33.41,7
-0.0005,-0.074,0.03,1.026,75.3,52.8,33.7,1
-0.0603,0.0573,0.0196,0.085,68.5,54.3,34.26,1
0.634,-0.4795,-0.842,1.726,83.3,89.2,33.69,6
-0.2602,-0.4528,-0.2536,1.321,73.9,76.3,33.49,5
-0.0632,0.0687,0.0889,0.566,70.8,61.8,33.94,1
-0.3226,0.331,0.2622,0.443,83.3,74.1,33.22,1
-0.0417,-0.0912,0.1312,0.04,77.8,72.5,33.87,1
-0.0733,-0.1141,0.5113,1.365,74.3,72.0,33.83,4
-0.0757,0.0705,0.0196,0.922,72.6,54.0,33.79,1
0.1788,-2.5757,-1.9992,3.016,85.5,113.1,33.74,8
-0.0489,-0.0459,-0.0391,0.365,76.2,51.0,34.26,1
0.0168,0.0118,0.019,0.578,68.2,57.8,34.47,1
0.0562,-0.0735,0.017,0.002,67.7,48.3,34.08,1
-0.052,0.1329,-0.3098,0.538,87.6,91.6,33.95,4
-0.066,0.3319,-0.0985,0.027,69.4,69.9,33.22,1
0.2242,-0.2927,0.0233,1.135,72.8,65.2,33.53,3
1.8233,-0.5625,1.977,1.95,82.2,111.2,33.61,8
0.2124,-0.0708,0.2745,0.594,79.4,76.3,34.33,2
-1.1762,0.0777,0.3599,0.852,80.0,96.2,34.04,5
-0.4939,-0.1126,-0.3091,1.115,76.6,74.3,33.45,3
-0.1048,-0.2828,0.2542,1.284,71.9,67.5,34.04,4
0.0689,-0.0092,0.093,1.212,65.4,45.6,34.16,1
-0.1509,0.0548,0.0256,0.739,77.2,84.7,34.12,5
-0.9294,-0.6961,-1.1663,1.563,83.5,94.9,33.57,7
1.5277,1.0769,-0.3165,1.574,85.5,103.1,34.2,7
-0.0837,0.6249,0.5576,1.73,76.6,92.4,33.32,7
-0.0726,0.319,-0.1535,3.399,64.8,69.1,34.01,8
-2.9586,1.5407,-0.6394,1.694,79.0,112.7,33.45,7
-0.1327,-0.0114,-0.1209,1.412,72.1,79.5,34.37,6
-0.5905,0.7904,-0.2395,2.23,73.9,89.2,33.14,7
1.086,0.0151,-0.2267,2.543,69.1,96.6,33.61,8
-0.0842,-0.0361,-0.1352,1.393,72.8,69.5,33.6,4
0.1069,-0.0066,-0.2416,1.286,69.4,65.0,33.77,4
0.1853,-0.1662,0.0751,1.592,71.1,82.0,33.46,6
-0.0423,-0.4614,0.3131,0.935,73.0,74.3,33.61,3
0.6002,0.0846,-0.0597,2.109,70.9,68.5,33.63,6
0.0591,0.1884,0.5326,2.206,72.7,81.7,33.6,7
-0.0906,0.09,0.0856,0.055,65.6,52.2,34.58,1
-0.0006,-0.2549,-0.2216,1.496,76.5,79.7,33.27,5
0.1833,0.1018,-0.0409,1.891,78.0,75.1,33.2,6
-0.0419,0.0062,-0.0226,0.83,68.6,56.9,34.14,1
0.0472,0.0916,-0.0502,1.315,69.3,54.6,33.97,2
-0.0354,0.0512,-0.0029,0.422,68.5,54.1,34.24,1
-0.0056,-0.0339,0.0388,0.599,71.1,61.5,33.82,1
0.1413,0.0427,0.2076,0.067,75.2,73.3,34.34,1
0.9732,0.2176,-0.7506,1.645,79.7,92.7,34.53,7
-0.0526,-0.0049,-0.0165,1.454,71.6,50.8,33.97,2
1.1046,-0.4758,0.8012,0.753,65.8,90.9,33.17,4
-1.5016,1.808,0.0008,2.231,83.7,116.0,33.91,8
-0.4552,-2.398,-3.1221,1.591,88.4,123.9,33.66,7
-0.0,-0.0351,-0.0459,1.06,63.8,62.3,33.86,3
-1.4328,2.3186,2.2938,2.11,78.7,115.0,33.19,8
0.1331,-0.0859,0.0078,0.816,69.8,58.3,33.99,2
-0.1461,-0.1529,-0.5481,2.189,81.4,73.6,33.56,6
-0.0963,0.003,-0.0158,1.51,69.7,58.9,34.13,4
0.0159,0.0187,0.0126,0.946,71.6,53.7,33.21,1
-1.708,0.6469,-1.9327,2.256,82.5,113.8,33.55,8
0.0436,0.871,0.4394,2.115,76.1,98.8,34.23,8
0.0126,-0.0102,0.0261,0.531,69.3,51.6,33.93,1
-0.0331,0.0296,-0.0406,1.841,69.6,58.1,33.94,4
1.5689,-0.3158,2.0014,2.117,87.6,114.7,34.21,8
-0.0077,-0.4802,-0.1179,1.712,75.4,86.3,33.72,6
-0.2098,-0.1275,-0.1894,0.704,66.3,83.0,34.27,4
1.7862,-0.0706,-0.4319,2.275,84.3,92.2,33.41,7
0.1022,0.0465,0.06,0.793,69.2,60.3,34.19,2
0.042,-0.0007,-0.0239,0.473,67.5,55.3,34.0,1
-0.2009,0.4937,-0.0799,0.693,66.5,76.2,33.23,2
-0.0089,-4.1873,1.2064,2.409,71.7,113.7,33.56,8
-2.3555,-1.2283,0.2596,2.265,80.1,113.7,33.43,8
0.0242,-0.052,0.0029,1.892,62.4,59.7,34.37,5
-0.0591,-0.0086,-0.012,1.098,70.5,58.9,33.56,2
-0.094,0.1807,-0.3119,0.023,75.9,72.4,33.64,1
0.0417,0.193,0.1093,1.127,72.4,68.1,34.15,4
-0.3599,0.2649,-0.9386,1.56,77.3,95.3,33.52,7
-0.0684,-0.037,0.0721,1.515,81.1,61.1,34.34,4
-0.0793,-0.147,-0.1833,0.754,73.4,71.9,33.42,2
-0.0452,0.0362,0.0506,0.602,66.7,51.3,33.51,1
0.0722,0.4071,-0.215,1.417,71.8,82.6,33.76,6
-0.443,-0.7365,-0.4141,1.953,75.9,96.2,34.12,7
0.0035,-0.0071,-0.009,0.266,69.3,63.1,34.19,1
-0.0612,0.108,0.0415,0.425,67.6,61.1,33.92,1
0.0466,0.0724,0.0317,0.398,78.7,59.4,34.14,1
0.0437,0.0553,0.0948,1.419,73.0,58.3,34.48,4
0.149,-0.0233,-0.3386,1.18,74.0,69.6,34.27,4
0.2618,0.3022,0.4415,2.236,66.0,94.5,33.84,8
-1.6585,1.5813,1.7315,0.892,84.7,117.3,33.15,6
-0.1522,0.3673,0.0964,0.796,69.7,75.4,33.8,4
0.0263,0.0341,-0.0413,2.003,62.4,59.2,34.39,5
-2.339,-1.6083,1.8047,2.079,80.5,117.7,33.44,8
0.0057,-0.0604,0.0542,0.606,56.4,53.5,33.93,1
-0.0612,-0.3669,0.3893,0.405,68.1,76.3,33.3,1
-0.0508,-0.0021,0.0231,1.14,72.7,61.1,33.62,3
0.0111,0.1152,-0.0959,0.342,63.0,49.6,33.72,1
0.0794,-0.058,-0.0574,0.451,71.6,54.1,34.14,1
-0.5256,0.4214,-0.2592,0.479,72.4,76.5,33.75,2
-0.4358,-1.2578,-0.5672,1.781,86.7,88.4,34.16,7
0.4272,-0.1179,0.0004,1.622,78.9,80.8,33.76,6
-0.0583,-0.167,-0.014,1.21,74.2,74.5,33.43,5
-0.437,-0.1109,0.1526,1.971,63.2,77.2,33.12,6
-0.6058,0.1349,-0.2276,0.893,75.5,73.2,33.26,2
-0.0777,-0.1048,-0.2889,0.852,66.7,62.7,33.78,2
0.0591,0.0063,-0.0172,0.366,61.6,47.4,34.35,1
0.0255,-0.0013,0.0266,1.745,72.2,63.8,33.62,5
0.0545,0.0505,0.0681,0.85,66.2,57.2,34.28,2
-0.7513,-0.8861,0.4564,1.099,80.8,91.2,33.31,5
0.0062,-0.2047,-0.3602,2.106,75.9,78.6,32.93,7
-1.3691,1.0919,0.989,1.663,80.8,103.6,33.79,7
0.0145,0.004,-0.0224,1.771,75.2,53.4,34.37,4
-0.0686,-0.0132,0.007,1.394,67.0,60.3,34.07,4
0.4128,-0.3386,-0.7113,1.888,79.6,101.7,33.49,8
1.5165,1.3014,0.8979,1.058,82.2,110.3,33.95,6
-0.0601,-0.0002,-0.0499,0.463,69.6,58.6,34.2,1
0.0248,0.281,-0.2197,1.545,68.9,69.7,33.84,5
-0.2529,0.3549,0.4064,1.215,69.3,76.1,33.25,4
-0.3007,0.1013,0.142,1.026,79.1,71.7,33.46,3
-0.0576,-0.0042,-0.0421,1.185,67.7,56.2,34.2,2
1.4961,-0.4355,0.4464,2.857,77.0,106.1,33.49,8
-0.99,0.9835,-1.3974,3.147,90.6,102.7,33.83,8
0.3981,-0.0416,2.0882,1.682,86.2,98.1,33.83,7
0.0142,0.2641,0.1788,1.789,65.6,83.3,33.91,7
-0.0289,-0.0548,0.072,2.101,65.3,54.1,34.09,5
0.0353,0.0527,-0.0324,1.708,68.9,71.4,34.14,6
-0.0477,0.1755,-0.0241,2.463,75.0,73.1,33.53,7
-0.6547,-0.0191,-0.0001,0.473,65.6,71.8,33.98,1
-0.1728,-0.1692,0.2839,0.716,73.1,71.8,33.68,2
0.0011,-0.0378,-0.0783,1.049,69.1,51.4,33.82,1
0.0723,-0.3843,-1.1661,2.101,75.6,86.5,34.21,7
-0.0631,0.0175,0.0259,1.217,72.9,61.5,34.81,3
0.0431,0.1125,-0.0304,0.917,73.8,54.8,33.72,1
0.3687,1.8098,1.1612,1.633,82.8,93.4,33.48,6
0.1172,0.1273,-0.0013,0.846,67.8,54.2,34.0,1
-1.7707,0.4885,0.6083,1.198,76.7,90.0,33.61,5
0.8372,-0.1039,-1.341,1.225,79.5,92.1,33.58,5
-0.0026,0.0096,0.0773,0.398,68.6,57.1,33.75,1
0.4142,-0.1767,0.2178,1.214,76.4,64.2,33.66,3
-0.0186,0.3492,-0.1529,1.036,71.3,72.5,33.62,3
0.092,0.067,-0.2571,0.977,67.0,81.7,34.05,5
-0.1512,-0.2115,0.1538,2.192,83.6,86.2,34.09,7
1.0594,2.222,1.1301,3.593,81.0,107.9,34.06,8
1.0255,0.7357,0.7542,2.307,74.4,95.3,33.06,7
1.0037,-1.7563,-1.0644,2.958,70.3,95.0,33.37,8
-0.3309,-0.3268,-0.1464,1.101,71.3,77.3,33.65,4
0.0098,0.0277,-0.0348,1.234,77.8,62.1,34.77,4
0.077,0.1365,0.6554,1.048,70.2,77.9,33.64,4
0.3863,-0.0907,-0.5457,2.422,76.8,69.1,34.33,7
0.0205,0.0016,0.0516,0.174,57.3,56.1,34.09,1
0.1893,0.0158,0.3822,1.842,66.2,74.1,33.42,6
0.0588,-0.523,-0.1777,1.215,70.8,75.8,33.85,4
0.0216,0.0863,-0.0059,1.496,72.9,52.8,33.75,3
-0.1466,0.4275,-0.0494,1.234,73.9,79.1,34.15,5
-0.0682,-0.0171,-0.0969,1.22,69.9,56.3,34.03,2
1.153,0.756,0.369,1.689,75.4,93.5,33.9,7
-0.0286,-0.0019,0.6482,1.46,73.1,69.6,33.83,4
-0.0379,-0.0258,0.0074,2.258,66.2,62.4,34.01,6
-0.0278,0.1125,-0.0176,0.616,77.5,57.8,34.09,1
0.2271,0.0883,-0.32,1.343,77.7,75.3,33.35,4
-0.0037,0.0126,0.0052,2.114,68.3,56.2,33.88,5
0.0561,0.0148,-0.0753,1.195,79.1,53.5,34.22,2
0.033,-0.0314,-0.0401,1.029,71.2,63.4,34.3,3
-0.0161,0.0694,-0.022,1.21,70.2,56.4,34.07,2
-1.8134,-0.828,0.8416,2.307,86.6,108.3,33.67,8
0.0283,-0.017,-0.0912,0.541,77.6,54.9,33.72,1
0.0914,0.4524,-0.5638,2.707,78.0,95.5,33.3,8
-0.1674,-1.699,-1.2914,0.949,76.6,93.2,33.62,5
0.0007,0.0294,0.0082,1.535,71.0,53.3,34.02,3
-0.0516,-0.0541,0.0051,0.498,74.3,62.0,34.35,1
-0.029,-0.0086,0.0139,0.731,64.8,49.1,33.97,1
1.6717,0.0521,-1.1276,1.869,73.7,118.3,33.87,8
-2.2345,-3.1564,-1.6029,3.011,85.9,116.6,33.67,8
0.0291,0.0442,0.012,0.979,71.5,50.3,34.15,1
0.5616,1.5687,0.5301,1.768,84.1,98.4,33.58,7
0.0013,-0.0017,0.0557,1.699,70.7,54.2,33.81,3
-0.0421,-0.0383,-0.0403,0.583,72.6,54.1,34.02,1
0.0976,0.0311,-0.0527,0.351,73.3,50.5,33.61,1
1.2358,-0.8055,-0.0716,2.321,75.8,115.1,34.4,8
-0.2847,-0.055,-0.3853,1.631,70.9,80.4,33.57,6
0.0153,0.047,-0.2271,1.435,71.6,81.0,33.24,6
-0.0754,0.0802,0.0169,1.666,73.0,55.3,33.97,4
-0.4027,-0.5596,-0.4403,3.525,64.8,98.5,34.05,8
0.0121,-0.0371,-0.1154,0.705,81.5,53.4,33.66,1
-0.0053,0.0368,-0.0066,0.305,70.0,60.3,33.89,1
1.0926,2.225,-0.5692,1.702,86.7,108.3,33.57,7
0.0153,0.0083,0.0699,0.214,72.2,62.6,34.57,1
-0.0405,0.0378,0.0008,1.258,70.0,60.3,33.7,3
0.1322,0.2307,0.1203,1.37,67.9,71.9,33.92,5
-0.4348,0.126,-1.0409,2.983,70.0,90.2,34.16,8
0.019,-0.0136,0.0036,0.018,64.1,50.3,34.12,1
-0.2097,-0.6446,-0.1571,1.576,78.6,90.1,33.61,6
0.0072,-0.0796,0.0313,0.738,64.8,58.6,33.85,1
-0.3437,0.3539,0.6311,1.09,70.4,75.9,33.09,3
0.1249,0.0388,-0.0287,0.558,73.1,45.0,34.49,1
-0.264,-0.1646,-0.2544,0.836,77.0,74.9,33.8,3
0.049,0.0087,-0.0496,0.856,68.5,57.3,34.05,2
-0.1901,-0.0478,0.3069,2.029,65.1,76.6,33.91,7
0.0298,0.0131,-0.0493,0.248,75.4,51.1,33.26,1
0.0021,0.0122,0.0427,0.23,65.0,63.1,34.26,1
0.0101,0.0193,0.0422,1.383,70.6,54.6,33.64,2
-0.0854,-0.0073,-0.0092,1.22,69.0,55.1,34.46,2
0.0233,-0.057,-0.3954,1.011,75.3,81.8,32.98,4
0.3206,-0.6234,-0.743,2.246,76.1,89.4,33.83,7
-0.0063,-0.0003,-0.0077,1.608,69.3,61.0,34.31,5
3.3797,-0.7202,-1.8718,1.741,75.9,121.0,34.15,8
-0.5032,0.3383,1.8945,1.458,75.4,102.9,33.74,6
-0.0448,0.1382,0.1551,1.89,70.7,75.7,33.43,6
-0.2167,-0.141,0.1977,1.745,67.9,68.1,34.12,5
-0.4814,-0.6057,0.4251,0.516,80.2,95.7,33.65,4
0.0142,-0.0217,-0.1024,1.158,70.2,53.9,33.9,2
0.6953,0.2844,-1.0773,1.952,80.5,94.6,33.29,7
-0.0228,0.0556,-0.0202,0.039,77.7,57.3,34.21,1
0.0079,-0.0932,0.0442,1.057,70.2,42.8,34.39,1
0.0299,0.0154,0.0644,0.278,71.5,54.5,34.34,1
-0.0685,0.1098,0.4931,1.41,81.4,75.4,33.46,4
-0.3671,0.3271,-0.1272,1.466,71.3,65.5,33.65,4
0.0533,0.0468,-0.0354,0.353,78.2,64.4,33.76,1
0.3312,0.0705,-0.7431,1.566,62.9,76.7,33.54,5
0.0133,0.0423,0.0331,0.768,70.5,49.7,33.95,1
-0.0364,-0.0118,0.0604,0.141,76.5,51.8,33.87,1
-0.0476,0.0119,-0.09,1.282,73.8,47.6,33.31,1
-0.0021,0.0034,-0.1007,1.899,75.8,63.8,33.52,5
0.0208,0.0344,0.0577,0.4,72.7,64.7,33.76,1
0.3248,0.2347,0.054,0.857,70.9,72.6,33.74,3
0.2371,1.0714,0.5098,1.318,69.5,95.7,33.59,6
-1.1963,-1.5636,-0.7383,1.248,77.2,96.4,33.72,5
-0.0338,-0.0237,-0.0354,0.838,69.7,55.7,33.77,1
-0.3566,0.24,0.3525,1.54,71.1,97.5,33.35,7
0.6169,-0.4036,0.5778,0.776,75.5,79.2,33.54,3
-0.0135,-0.0341,0.0767,0.832,75.6,48.4,34.33,1
-0.0375,-0.0366,-0.0667,1.824,65.4,53.1,34.14,4
-0.0598,0.0383,0.0906,0.748,65.6,57.0,33.44,1
0.0446,0.0523,-0.0089,0.454,67.6,68.6,33.75,1
0.0296,-0.0945,-0.0143,1.363,67.9,46.6,34.11,2
-0.0732,-0.0554,-0.007,0.104,67.8,61.6,33.36,1
-0.1729,-0.1425,-0.1235,0.88,74.4,75.4,33.43,3
0.0482,0.0451,0.0586,0.94,74.1,55.8,33.62,1
-0.2742,0.0881,0.046,1.53,79.8,72.4,33.33,5
-0.0204,0.0028,0.0428,0.151,68.4,51.4,34.11,1
-0.0123,-0.0024,0.0449,1.16,65.0,58.5,33.9,2
-0.1034,0.0011,0.1962,1.346,67.6,71.7,33.66,5
-0.0903,-0.0183,-0.042,0.268,59.8,58.2,33.74,1
-0.3298,0.0468,0.6753,0.692,73.3,74.6,33.7,3
0.0297,0.2228,0.118,0.287,80.4,66.1,33.72,1
-0.0334,0.0386,-0.0405,0.674,71.9,56.7,34.07,1
0.1444,-0.0374,-1.3555,1.544,69.4,86.6,33.36,5
0.0504,-0.0581,-0.0146,0.544,62.8,58.6,33.73,1
-0.167,-0.073,0.4491,1.467,72.8,68.0,33.79,4
-0.1822,-0.0381,0.1213,0.089,76.4,62.7,33.83,1
-0.0622,0.0119,0.074,0.199,72.5,54.3,34.25,1
-0.0462,0.0527,-0.2824,0.54,74.0,81.8,33.16,3
0.0101,0.0408,0.0371,0.877,62.3,58.8,34.66,2
0.0023,0.0216,-0.02,0.024,69.1,54.4,33.77,1
0.9454,0.2283,0.5526,1.369,80.6,93.0,33.68,6
0.0928,0.0897,0.0601,0.255,73.3,55.4,34.49,1
0.1901,0.0911,0.3037,0.139,65.6,71.6,33.58,1
-0.8598,1.7991,0.4163,1.777,73.3,93.0,33.29,7
0.485,0.6305,0.3712,1.621,81.0,98.1,33.45,7
0.0276,-0.0823,-0.0051,1.638,75.5,58.6,33.9,4
0.596,-0.1217,-0.4324,1.047,75.4,74.9,33.97,4
-0.2657,-0.1456,0.077,0.536,82.1,82.4,33.67,3
-0.0089,-0.0418,0.0482,0.529,63.0,46.0,33.87,1
0.0146,-0.0049,0.0681,0.116,67.7,59.1,33.65,1
0.0076,0.0409,-0.0224,0.539,75.0,47.3,33.96,1
-0.225,0.3797,0.1646,1.546,63.0,68.5,34.06,4
-0.0343,-0.0355,0.0427,0.253,79.5,54.3,34.08,1
0.085,0.0127,-0.0506,1.116,76.5,54.8,33.78,2
-0.1203,-0.1133,0.2493,1.609,78.8,81.2,33.82,6
-0.0718,-0.0082,0.0599,0.968,57.6,56.1,33.97,1
0.1056,-0.3876,-0.0409,0.759,66.6,71.5,33.84,2
-0.3008,1.056,1.3496,0.06,77.3,95.6,33.01,2
0.0089,-0.0513,0.0791,0.482,77.8,56.0,33.62,1
0.0073,0.0111,-0.0194,1.113,66.9,59.3,34.2,3
0.0067,-0.0336,-0.0877,1.19,67.0,51.4,34.34,3
0.0071,0.0488,-0.0206,0.745,67.6,57.8,34.09,1
-1.1167,-1.7373,-0.5782,2.563,90.2,114.6,33.75,8
-0.3011,-0.3774,0.524,1.554,71.0,91.9,33.58,7
0.0212,-0.0178,-0.0731,0.548,72.2,55.0,33.93,1
0.0381,-0.1202,0.0136,0.751,68.2,53.6,34.22,1
-3.325,-2.3672,-0.0487,2.837,80.0,104.3,34.06,8
-0.0696,-0.2201,0.1465,0.135,70.6,67.8,33.89,1
-0.0145,0.0484,-0.0239,0.191,72.3,58.1,33.66,1
0.0789,-0.0245,-0.0676,0.847,70.4,55.5,33.93,1
-0.0456,-0.0242,0.0454,0.569,72.2,53.0,33.69,1
0.2316,0.4568,0.0463,2.74,78.1,97.2,33.99,8
-0.0046,0.995,-0.2025,1.566,76.9,90.9,33.59,6
0.8089,0.6198,-0.7888,1.471,78.3,96.4,33.48,6
0.7474,0.4203,0.3186,1.381,71.8,95.0,33.54,6
0.0168,0.0521,-0.1086,1.035,74.9,58.9,33.82,3
0.1486,-0.4544,0.2284,2.385,80.7,103.0,33.79,8
1.5551,0.0,3.5945,2.338,73.0,108.8,33.69,8
-0.0063,0.0651,-0.0067,1.177,73.0,62.8,33.8,2
2.2569,-1.8949,0.238,2.533,74.8,113.3,33.63,8
-0.0619,-0.066,-0.2026,1.499,72.0,74.7,33.77,5
-0.0381,-0.0091,-0.0731,1.125,69.5,61.8,34.7,3
0.7596,1.8586,0.4509,2.469,75.8,107.1,33.59,8
-0.6131,0.5534,-0.0107,1.878,73.9,98.1,33.74,7
0.1758,0.0487,0.1079,0.988,73.8,80.0,33.77,5
-1.1302,-0.349,-0.6192,3.194,86.7,109.7,33.73,8
-0.0137,-0.0177,-0.0082,0.257,69.2,60.1,33.51,1
0.0912,-0.0309,-0.0234,0.005,69.1,54.9,33.45,1
-0.0003,0.0284,-0.0453,1.44,68.4,48.1,33.96,2
-0.0014,0.5418,0.1687,0.582,74.8,73.6,33.06,1
-0.2226,0.3101,-0.6804,2.488,74.9,95.3,33.28,8
-0.031,-0.0623,0.0054,1.77,74.1,59.7,33.4,4
-0.5735,-0.1404,-0.4759,1.615,79.6,71.9,33.6,5
0.0246,0.0017,0.0394,0.679,76.2,44.8,33.6,1
0.1046,0.0352,-0.3639,2.468,74.0,89.0,33.52,8
-0.0205,0.0742,-0.0052,0.202,76.4,51.5,34.05,1
-0.7529,1.1525,0.0087,1.978,80.7,104.2,34.07,8
0.4166,0.0797,1.3807,1.874,78.4,99.5,33.81,7
-0.07,-0.0023,0.0138,1.546,72.6,53.3,34.19,3
-0.9955,0.4648,0.0533,1.629,68.5,98.2,33.43,7
-0.0226,0.0326,-0.047,1.334,66.6,59.8,33.57,3
0.2246,-0.5108,-0.1114,2.338,73.6,64.0,33.45,6
-0.6543,0.4369,-0.0317,0.816,77.0,102.6,34.06,6
0.4064,0.1227,0.3352,1.548,68.9,76.2,33.19,5
-0.0394,0.097,-0.1357,1.399,70.7,77.0,33.41,5
0.1138,0.0283,-0.0561,0.261,67.4,59.1,33.73,1
0.0026,-0.0279,-0.0713,1.301,65.5,52.9,33.66,1
-2.9473,1.9013,-1.9177,1.469,84.6,106.0,33.57,6
-0.3029,0.126,-0.105,0.838,68.3,74.1,33.91,3
-0.0729,-0.3266,0.0494,0.049,71.1,85.1,33.36,2
0.1222,0.0369,-0.3415,1.898,77.6,77.8,34.05,6
-0.0115,-0.0315,-0.0927,0.123,67.1,54.9,34.41,1
-0.0589,-0.4432,0.3192,1.052,73.1,75.6,34.11,4
-0.1561,-0.2753,0.2551,1.63,71.4,72.0,33.87,5
0.0391,-0.0222,-0.0068,0.446,72.9,49.1,34.39,1
0.3739,0.9975,-0.3087,1.886,71.8,101.1,33.47,7
-0.7845,-1.3247,0.0477,2.026,75.9,92.1,34.17,7
-0.0605,-0.0071,-0.0942,0.413,63.6,62.3,33.52,1
0.8393,-1.4709,0.434,1.58,80.4,109.2,34.25,7
0.0455,-0.0123,0.0131,1.347,71.4,59.2,34.06,3
-1.5603,-0.2616,0.9521,2.514,84.2,97.2,33.66,8
-0.0682,-0.3929,-0.4285,2.533,78.9,80.6,33.78,7
0.0444,0.0381,-0.0783,0.275,82.4,49.1,33.68,1
0.0061,0.0649,-0.0602,0.631,68.0,51.4,33.64,1
-0.3352,-0.4096,-3.1327,1.811,75.6,115.8,33.98,8
0.0215,0.0129,-0.0345,0.775,74.6,69.5,33.81,2
-0.2532,0.0722,-0.1316,0.453,70.3,74.9,33.7,2
0.0395,0.0031,0.0025,0.174,74.2,55.6,34.67,1
0.0179,-0.1465,0.0831,0.004,81.7,97.2,33.9,3
-0.0947,-0.0962,-0.0039,0.486,76.0,58.5,33.56,1
-0.0796,-0.2255,-0.071,1.151,69.2,85.2,33.99,6
-0.016,0.0029,0.3813,1.031,76.7,74.8,33.58,4
-0.0531,-0.017,-0.0511,0.795,69.7,55.7,33.97,1
0.0275,0.1058,-0.0253,0.986,73.9,55.5,34.17,1
-0.0285,0.094,0.0367,0.265,70.5,52.5,33.82,1
2.2547,-0.0071,0.7964,2.398,83.7,125.4,34.03,8
0.109,2.1247,-0.6821,1.609,79.9,110.6,33.44,7
-0.0195,-0.0059,0.0603,2.249,71.3,50.8,34.25,5
0.4626,3.1449,-3.8146,1.806,76.0,116.4,33.86,7
-0.1036,-0.086,-0.0035,0.535,67.7,56.9,33.64,1
0.0428,0.1034,-0.1602,0.908,60.2,68.3,33.28,2
-0.8081,0.2755,0.0934,2.165,79.4,81.9,34.22,7
0.1639,0.0695,0.0886,1.083,88.7,81.9,33.65,4
0.0587,0.0817,-0.0448,1.556,65.6,48.5,34.0,3
0.0057,0.5555,1.0511,1.365,75.6,87.9,33.85,6
0.0258,0.006,-0.1263,0.513,76.2,49.9,34.02,1
-0.5666,0.157,0.1744,0.194,71.4,78.2,34.01,1
0.0483,-0.0473,0.0194,0.355,71.9,55.7,33.95,1
0.0271,-0.0017,0.0288,1.155,69.2,46.3,33.38,1
0.0151,-0.0079,-0.0371,0.86,66.2,52.7,34.04,1
1.9812,-1.0499,-0.8262,2.338,78.5,113.5,33.8,8
-0.4296,-0.2565,-0.9668,2.638,84.5,89.1,33.26,8
1.4626,0.7502,-0.4645,1.26,69.7,94.7,33.65,6
0.0575,0.0031,0.0038,0.321,73.8,63.7,33.92,1
0.2616,-0.1706,-0.6427,0.956,67.8,75.5,34.0,3
0.0891,-0.0117,-0.0467,0.02,80.7,57.8,33.7,1
-0.0832,-0.0965,-0.0113,0.707,68.2,51.6,33.87,1
0.5505,-0.1615,0.141,1.611,82.1,92.7,33.66,7
-0.1559,0.3984,-0.4319,1.956,77.8,72.5,33.6,6
0.5184,-0.0368,-0.1765,1.307,69.8,74.3,33.67,5
1.8502,1.7762,-0.8091,1.856,84.0,122.0,34.12,8
0.3201,-0.0887,-0.3626,1.554,79.5,104.0,33.89,7
-1.1452,-0.4463,-0.2193,1.405,76.9,85.0,33.96,5
-2.3063,0.8989,0.7526,0.371,84.7,104.2,33.79,4
-0.1719,0.0062,0.0091,0.325,62.9,52.0,34.03,1
0.9927,-1.5367,-0.2698,2.271,75.8,96.6,33.88,8
0.5519,0.3864,-0.2864,1.487,74.9,94.5,33.82,6
0.0088,0.0267,-0.0135,1.165,64.1,46.3,34.38,1
0.0108,-0.0673,0.0358,0.602,73.0,53.6,33.99,1
0.1106,0.0049,0.3051,1.116,70.9,70.5,33.4,4
-0.3313,0.7013,-1.1431,0.705,81.9,86.7,33.85,4
0.1562,0.5239,-0.2786,1.508,76.6,70.4,33.56,5
-0.0291,0.081,-0.0339,1.059,72.6,52.0,34.22,1
0.676,1.3543,1.1818,2.06,74.2,86.5,33.61,7
-0.0174,-0.0325,-0.0197,0.759,79.2,53.1,34.7,1
-0.0641,0.0363,-0.1064,0.545,72.5,55.5,34.17,1
-0.5551,-0.0128,-0.1568,0.808,77.2,72.8,34.37,3
0.0076,0.0459,-0.0229,0.594,75.1,55.1,34.0,1
-0.0105,-0.0703,0.0084,0.655,61.7,51.3,33.67,1
0.3769,-0.0979,-0.0535,1.429,74.7,83.1,33.38,6
0.0395,-0.0644,-0.0324,0.164,69.5,56.8,34.11,1
0.0748,-0.031,-0.0336,0.977,68.8,46.6,33.96,1
0.0235,-0.0774,0.0076,0.916,64.0,49.0,34.28,1
-0.0446,-0.666,-1.6936,1.579,86.3,121.4,33.61,8
0.0819,-0.813,0.2744,0.923,74.3,91.2,33.82,5
-0.3215,-0.008,-0.5497,1.406,70.0,100.2,33.74,7
-0.2268,0.0283,-0.3898,1.613,76.1,80.8,33.13,6
0.0021,0.0132,0.0067,0.213,77.0,52.1,34.47,1
-0.9644,-0.1353,-0.5501,0.138,75.5,84.5,33.94,2
0.0902,0.1491,-0.0274,2.112,70.7,80.4,33.29,7
-1.3549,0.0743,-0.2094,2.962,79.0,93.2,33.94,8
0.0789,-0.0007,0.0351,0.95,54.5,53.1,34.1,1
0.79,0.8427,-0.9638,1.478,79.2,93.4,33.24,6
-0.3018,-0.2101,0.4815,0.789,72.6,75.7,33.16,2
-0.268,0.1885,0.9189,1.956,80.9,112.7,34.09,8
-0.1199,0.0619,-0.2001,1.449,73.7,69.0,33.86,5
-0.0306,-0.0482,-0.0049,1.772,72.3,61.6,34.02,5
-0.1505,-0.0862,0.0175,1.858,61.7,54.6,34.2,4
0.1219,-0.3101,-0.0203,0.963,72.6,76.3,33.84,4
-0.058,-0.0339,0.0329,0.087,64.0,51.1,33.84,1
0.0132,0.0588,-0.0383,0.481,75.6,56.8,33.96,1
0.022,-0.0133,0.0144,0.696,67.0,57.9,34.14,1
0.0842,0.0192,-0.0475,0.336,69.1,52.0,34.37,1
-0.049,-0.0164,-0.009,1.226,73.3,73.3,33.4,4
0.3461,-0.6354,0.4154,1.358,78.5,79.9,34.17,5
-0.0247,0.7831,-0.3839,2.175,68.4,79.2,34.34,7
-0.1854,-0.3832,0.063,1.493,84.7,74.5,33.67,5
-0.2007,0.8749,-0.1773,1.427,64.9,97.6,33.46,7
-0.8114,-3.7757,-2.6061,2.787,87.9,121.9,34.0,8
0.0481,-0.0696,-0.018,0.989,70.5,51.5,33.99,2
-0.0458,-0.0024,-0.0531,0.73,68.5,57.5,33.46,1
-0.3674,-0.2705,-0.1782,0.095,74.2,81.3,33.25,1
0.7024,0.5079,-0.1949,1.913,85.1,109.3,34.29,8
0.0512,-0.1111,0.0794,1.047,63.2,53.5,34.87,2
2.1115,1.1177,0.3743,2.898,81.8,115.0,33.95,8
-0.4085,-0.0482,-0.3793,1.554,69.8,71.9,33.15,4
-0.2394,0.3675,0.1223,1.405,70.4,79.2,33.71,6
-0.1369,0.1208,0.3141,0.677,76.3,74.6,33.54,2
-0.0982,0.0017,-0.0103,0.047,65.1,64.3,33.89,1
2.84,0.6969,0.7432,2.795,93.5,118.8,33.63,8
-0.5264,-0.1676,-0.2333,1.64,67.3,75.0,33.99,6
-0.3202,0.258,-0.1081,1.321,71.0,72.7,33.84,4
-0.0204,-0.0688,-0.0426,1.738,70.2,81.5,33.86,6
0.0546,-0.1052,-0.0574,0.602,77.1,49.0,34.25,1
0.6264,0.9619,0.4916,2.793,81.7,119.2,34.02,8
0.0697,-0.0053,0.0044,0.359,68.1,64.0,33.97,1
0.4298,-1.0136,-0.5165,1.44,76.3,94.9,33.75,6
0.2568,0.4859,-0.246,0.727,75.7,71.4,33.91,2
-0.5848,-0.0797,0.4786,1.55,74.6,89.6,33.37,7
0.3619,-0.0273,0.0309,2.509,69.6,71.9,33.2,7
0.0139,-0.0102,-0.0074,0.272,70.9,57.7,34.1,1
0.101,-0.0608,-0.067,1.189,67.0,45.3,34.91,2
0.3054,-0.1396,0.1396,1.614,76.4,67.7,33.18,5
0.4721,0.2953,0.061,0.08,77.7,77.6,33.95,1
-0.1652,-0.048,0.2961,1.046,67.1,70.6,33.34,3
0.3755,0.1913,-0.2105,1.688,65.4,67.0,33.53,5
1.0094,-0.6938,-1.5347,0.983,75.1,90.3,33.82,4
0.0172,-0.066,0.0149,0.696,73.0,60.3,33.93,1
-0.649,1.6992,-0.7181,2.213,87.7,121.3,34.01,8
-0.4018,-0.4099,-0.0384,0.941,80.4,76.6,33.73,4
-0.0059,0.0218,0.0806,0.564,71.0,59.9,33.59,1
0.1016,0.6274,-0.1495,1.479,63.9,83.2,33.64,6
-0.0751,0.0641,-0.0269,0.223,67.5,49.3,33.81,1
0.0204,-0.0057,0.1393,1.209,66.3,56.1,34.37,2
-0.0079,-0.0834,-0.0648,0.925,74.1,54.3,34.43,1
0.3386,-0.0183,-0.0398,0.775,77.4,81.9,33.64,4
0.0683,-0.8088,0.2286,2.43,74.4,94.2,33.52,8
-2.822,2.7384,1.0095,2.903,86.8,114.4,33.26,8
-0.015,0.0198,-0.0785,0.662,70.0,59.9,33.94,1
-0.0088,0.0153,-0.0531,1.138,75.1,59.4,33.81,2
-0.2411,0.0267,-0.2572,1.6,71.7,73.2,34.29,6
-0.013,0.0685,0.0533,0.827,71.7,52.9,34.41,1
-0.0057,0.0183,0.0631,0.048,69.8,60.4,33.9,1
-0.0199,-0.0224,-0.0177,0.432,73.2,54.3,33.64,1
0.0325,0.1423,-0.5735,1.181,68.4,78.9,33.86,4
-0.035,-0.0557,-0.0272,1.098,74.4,47.7,34.67,1
0.2003,-0.1949,-0.0515,0.62,77.4,81.3,33.19,3
-0.2276,0.3253,-0.415,1.307,68.7,81.8,33.49,5
0.1066,0.5542,-0.4105,1.358,74.6,70.2,33.73,4
-0.0712,-0.4356,0.4193,1.839,71.4,95.7,33.58,7
0.1757,-0.1993,-0.2611,2.618,74.4,83.6,33.4,8
0.3711,0.2258,0.6342,0.966,67.9,75.2,33.35,3
-3.1102,1.0885,1.2184,2.374,82.6,107.4,34.11,8
-0.126,-0.0112,0.0152,0.946,77.7,63.0,34.46,3
-2.0809,-0.8769,1.2801,2.175,85.1,114.5,33.65,8
-0.6617,0.28,0.1621,1.978,78.4,92.1,33.85,7
0.0789,0.0307,-0.0154,0.591,72.8,51.9,33.71,1
-1.961,-0.1081,-0.3097,2.044,75.0,89.2,34.19,7
-2.1622,-0.1465,2.5025,2.457,73.9,122.7,33.16,8
-0.0015,0.0229,-0.0421,1.478,67.3,50.4,33.87,3
0.1626,0.5166,-1.0118,1.394,75.5,93.3,33.42,6
0.1239,0.4937,0.0904,2.328,78.4,80.0,33.75,7
-0.0261,0.0056,0.0674,0.759,59.8,60.0,33.76,1
0.2906,0.0835,-0.1483,1.154,65.1,73.7,33.65,5
0.1708,0.0364,0.2784,0.153,73.4,81.1,33.4,1
-2.4487,2.4058,1.3658,2.087,86.0,113.9,33.58,8
-0.0327,0.0213,-0.0178,1.512,62.5,54.4,33.91,3
-0.1461,1.5375,-0.1716,1.78,74.5,99.4,33.72,7
0.073,0.3603,-0.5239,2.072,71.6,75.9,33.72,6
0.3871,-0.2467,0.0236,2.203,75.2,61.2,33.55,5
0.9269,-0.885,0.0956,2.075,77.5,94.2,33.92,7
-0.0076,0.0013,-0.0553,0.802,71.8,58.0,34.44,2
-0.0084,-0.025,0.0762,2.116,71.2,57.3,33.96,6
-1.1527,1.0855,1.0626,1.832,87.1,119.2,33.82,8
-0.3283,0.0441,0.1766,1.312,66.8,75.4,33.87,5
-2.4427,0.6722,-0.8803,2.372,88.0,121.9,33.41,8
-0.1231,-0.3326,-0.4504,0.629,72.2,80.5,33.96,3
0.0787,-0.5745,0.4032,1.338,72.7,80.9,34.0,5
0.2479,-0.3896,-0.1064,0.878,76.2,67.0,33.74,3
0.0586,-0.0777,-0.0013,0.961,64.6,49.4,33.78,1
0.4277,-0.3616,-0.4601,2.666,74.9,75.9,33.56,7
-0.0147,0.2254,0.0836,0.802,75.2,74.6,33.51,3
-0.2063,-0.9018,0.0534,2.613,71.1,98.1,33.41,8
0.3545,0.0142,0.1284,2.677,74.5,71.7,33.68,7
-0.0107,-0.0025,0.1207,0.867,67.3,60.5,33.62,1
0.827,0.6447,-0.161,0.816,68.3,90.9,34.18,5
0.0897,-0.0681,-0.0366,0.852,76.2,62.1,34.15,2
0.0491,0.0338,-0.0007,1.109,76.8,54.3,33.32,2
-0.2733,-0.164,-0.1817,1.429,65.7,67.5,33.58,4
-0.0503,-0.0459,-0.0022,1.429,65.6,55.6,33.63,3
0.0887,-0.0238,0.013,0.125,69.1,61.4,34.15,1
-0.2736,0.1262,-0.3572,1.058,63.0,77.7,32.96,4
-0.0607,0.0232,-0.037,0.971,66.1,52.8,33.61,1
0.0784,-0.0116,0.0598,0.286,67.9,65.4,33.62,1
-0.3221,0.6079,0.1917,1.754,65.1,79.3,33.3,6
-0.5219,1.381,1.0165,3.116,82.9,109.7,34.04,8
-0.025,-0.0018,-0.0511,2.077,78.3,53.0,33.47,4
0.717,1.31,0.2745,2.314,86.8,90.9,33.81,7
0.0666,0.059,0.0329,1.515,62.9,54.8,34.5,4
-0.3161,0.0838,0.0988,1.579,78.1,71.7,33.75,5
0.3337,0.4351,-0.1436,1.158,63.0,72.4,34.05,4
0.3921,-0.9002,-0.0949,1.834,81.3,99.7,33.65,7
0.0107,0.01,-0.0142,0.503,72.0,52.9,33.25,1
0.9854,0.5175,0.7604,2.601,80.9,106.2,33.6,8
-0.341,-0.1716,0.5572,2.121,78.9,91.4,33.72,7
-0.3932,-0.2549,0.4788,0.958,76.1,71.1,34.31,3
0.9787,-0.9115,-0.1805,2.613,70.1,98.2,33.69,8
0.247,-0.0715,-0.041,0.225,69.0,65.7,33.3,1
1.3504,-1.1278,-0.1989,1.65,86.0,116.2,33.5,8
-0.0711,0.0369,-0.0464,0.52,70.4,50.2,33.47,1
-0.066,-0.0305,-0.0555,0.798,74.7,55.1,34.12,1
-0.0887,-0.0253,0.0182,1.383,70.0,50.8,33.57,2
0.9816,-0.6027,-0.0376,1.6,84.1,102.8,34.38,7
-0.1221,0.2502,0.1725,0.74,72.0,70.8,33.66,2
-0.6607,0.3074,1.0286,1.393,79.2,96.4,33.66,6
1.2991,0.282,0.1379,1.298,76.0,101.0,33.1,6
-0.1556,0.3088,0.3654,0.841,76.6,71.8,33.55,2
0.0559,0.0417,0.0806,1.267,71.1,55.6,34.07,3
0.1022,-0.6507,-0.3753,1.693,69.9,73.4,32.88,5
0.1166,-0.0758,-0.093,1.322,72.7,62.1,33.63,3
-0.0651,0.2151,0.286,1.559,78.1,79.7,33.64,6
0.5918,0.4134,-0.19,1.036,77.6,75.3,33.55,4
1.5033,2.3738,-0.5414,1.542,75.1,113.0,32.99,7
0.1482,-0.2405,-1.2012,1.776,80.4,88.9,33.61,7
-0.0961,-0.096,-0.0024,0.552,77.9,58.4,33.71,1
-0.0153,-0.0583,-0.03,2.028,70.6,50.8,34.13,5
-0.1134,-0.3452,-0.3296,0.872,70.4,73.3,34.12,3
-4.5055,1.2609,0.1538,1.729,77.6,111.8,33.65,7
0.3208,0.0313,0.0607,2.777,68.0,76.0,34.08,8
0.8913,-0.0541,-0.587,1.636,87.2,102.0,33.66,7
0.0232,-0.016,-0.0521,0.903,83.6,56.5,34.14,1
-0.0392,0.0409,0.0739,0.921,59.5,53.9,33.93,1
-0.0085,0.0205,-0.1482,0.087,71.8,47.9,33.74,1
0.013,-0.0094,-0.1185,1.43,80.2,61.1,33.85,4
0.061,-0.2087,0.3801,1.292,72.5,78.1,33.79,5
-0.1388,0.0029,0.1156,0.651,70.7,74.5,33.85,2
0.7899,0.0463,-0.2536,0.98,73.2,93.3,33.48,5
-0.0308,-0.1764,0.3573,0.9,72.8,71.4,33.9,4
-0.0123,-0.0186,0.0363,1.386,67.8,58.9,33.39,3
-0.0478,-0.0092,0.0389,1.265,77.9,44.6,34.21,1
-0.0629,0.0214,0.0035,1.205,65.5,51.0,34.06,1
-0.8863,-0.5148,-1.7468,1.749,83.8,93.2,33.2,6
-0.0479,0.0049,-0.0724,0.777,76.3,47.7,33.81,1
0.0229,-0.0592,0.0555,0.168,74.8,50.7,33.75,1
0.6375,-1.0725,-1.6063,2.15,83.0,89.2,34.0,7
-0.0007,0.0281,-0.0231,1.049,72.2,53.8,33.75,1
-0.0042,-0.0017,0.0779,0.629,64.4,60.5,33.88,1
0.0221,-0.0976,0.0448,1.121,71.4,60.9,33.62,2
0.1003,0.1952,0.347,1.693,81.4,95.6,33.65,7
-0.0247,0.025,0.0246,0.852,69.0,50.7,33.87,1
0.0136,0.0773,-0.4117,0.535,61.4,72.5,33.72,2
-0.7949,-0.038,0.6412,1.97,73.0,91.4,33.15,7
-0.0095,-0.0539,0.0285,0.084,75.8,45.3,34.03,1
0.0011,-0.0024,0.0734,0.807,64.5,54.0,34.35,1
-0.0965,0.0459,-0.0241,0.758,72.3,54.0,33.9,1
0.016,0.0885,0.0968,0.398,70.2,55.4,33.93,1
0.715,-1.5881,-1.6867,1.934,77.3,114.4,33.56,8
-0.0049,0.0578,0.0506,0.095,61.3,56.1,34.01,1
0.4559,0.2067,0.1518,1.109,75.0,79.4,33.27,5
-0.0297,0.0103,-0.0129,0.686,75.8,56.0,33.94,1
-0.0487,-0.9623,-1.1924,1.937,76.7,98.3,33.65,7
0.0986,-1.8084,1.3418,1.929,80.9,98.3,33.6,7
-0.3765,-0.3829,-0.1515,0.889,71.8,66.4,33.26,2
-0.096,0.0115,0.0045,1.157,66.6,51.7,34.29,1
-0.0103,-0.1309,0.2442,1.881,75.5,73.7,33.47,6
-0.2186,-0.0885,-0.0587,1.663,69.5,81.0,34.13,6
0.0388,-0.0088,0.073,0.276,65.0,53.4,33.64,1
0.0936,-0.0385,0.0215,0.443,74.2,59.4,33.96,1
0.0424,0.0205,-0.0085,0.619,77.9,53.6,34.41,1
-0.0366,-0.0215,-0.0413,0.338,61.1,53.8,34.28,1
-0.012,-0.0954,-0.0062,2.177,65.6,55.0,34.09,5
0.0106,0.0637,-0.0593,0.049,72.1,54.2,34.15,1
-0.0003,0.2966,0.0371,0.917,70.8,74.8,33.6,3
-0.3299,1.7877,2.3911,2.569,74.3,112.9,33.71,8
-0.1071,-0.0204,-0.0466,1.27,84.5,49.7,34.07,2
-0.0315,0.0501,-0.098,1.408,74.9,63.5,34.44,4
-0.0004,-0.0402,0.0535,0.157,68.8,56.0,34.37,1
0.751,-0.7361,-1.1652,1.757,81.6,93.7,33.7,6
-0.2436,-0.0724,0.2697,0.46,72.9,83.7,33.91,3
-0.0317,0.0005,0.0182,0.228,72.2,55.6,34.69,1
-0.2849,-0.125,0.3963,0.054,79.4,80.3,33.58,1
0.1941,0.1382,-0.0525,2.58,63.3,71.0,33.93,7
0.0334,0.229,0.0465,1.17,58.4,70.9,33.99,4
-0.002,0.0168,0.0168,1.297,70.4,62.4,34.19,3
0.0078,-0.1655,0.2801,0.48,69.0,76.0,33.54,3
0.0399,0.0056,0.0639,1.48,71.0,48.8,34.28,3
0.2079,-0.2413,0.5597,0.177,69.3,81.0,33.91,1
0.0263,0.0435,0.0332,0.143,74.4,60.6,34.08,1
0.1221,-0.2272,-0.1305,0.497,72.8,73.1,33.97,1
0.0297,-0.0146,-0.1638,1.36,68.9,55.6,34.2,3
1.7586,0.5826,-1.2647,1.699,82.0,120.5,32.61,8
0.2336,0.2052,-0.1049,1.302,71.4,81.7,33.89,6
-0.2817,-0.2874,0.1171,3.438,71.6,73.3,34.03,8
1.038,0.9198,-0.6993,1.184,75.6,105.1,33.56,7
0.0315,0.0336,-0.0372,0.364,70.0,51.5,34.28,1
0.0524,0.0167,-0.047,0.237,66.7,59.5,33.22,1
0.4165,0.6479,-0.3496,1.513,87.3,95.0,34.31,7
0.0209,-0.3517,0.3462,0.953,71.9,65.8,34.18,3
-0.6968,-0.5783,-0.4621,0.802,75.5,93.7,33.73,5
-0.1749,0.3653,-0.1871,0.398,75.7,85.3,33.03,3
-0.0102,0.0201,-0.0745,1.468,63.9,54.5,33.74,3
0.0515,-0.0087,-0.0021,0.403,68.1,51.4,34.21,1
-0.9212,-1.0897,0.661,2.119,77.2,91.0,33.8,7
0.0168,0.1505,0.3398,0.335,75.5,74.8,33.38,1
0.0013,0.0575,-0.0301,1.266,64.9,53.6,33.75,2
0.6737,0.2624,-0.3525,1.784,82.5,91.4,33.73,7
0.1666,0.3841,-0.4143,1.081,74.9,68.7,33.56,3
-0.3128,-0.1333,0.0463,1.38,71.2,72.4,33.53,5
-0.0604,-0.0107,-0.0441,0.12,68.3,64.3,33.35,1
-0.3964,0.1704,-0.3958,1.057,76.0,80.4,33.28,4
0.1649,-0.4661,0.3414,0.63,73.7,74.6,33.89,2
0.0472,-0.1891,-0.1346,1.238,77.4,78.9,33.14,5
-0.3733,-0.6572,-1.0488,1.06,79.4,91.6,33.64,5
-0.0608,-0.0505,0.0733,0.098,75.5,57.5,33.7,1
-0.5206,0.7994,0.2943,1.237,71.9,101.1,34.01,7
-1.5022,-1.4396,0.0293,2.531,73.5,97.3,33.69,8
0.0431,0.0252,-0.001,1.326,63.8,65.8,33.58,4
0.0016,0.0197,-0.0127,0.972,72.7,64.3,34.02,3
-0.0266,-0.0352,0.0735,1.146,69.0,49.9,34.19,1
-0.0225,0.026,-0.0344,0.73,63.7,59.1,34.23,1
0.3379,0.0637,1.3393,1.689,75.3,95.6,33.18,6
-0.4233,2.318,-1.3771,2.531,85.4,117.9,33.87,8
0.0633,0.0525,-0.0526,0.929,73.1,56.6,33.76,1
-1.4447,0.0364,0.5137,2.545,82.6,115.8,33.9,8
0.0396,0.5316,0.388,3.067,78.6,97.5,33.41,8
0.0413,-0.0131,-0.0495,0.147,70.5,46.1,34.24,1
0.4555,1.3689,-0.3503,1.188,79.9,88.9,33.7,5
0.0159,0.0244,-0.0452,1.157,67.6,56.2,33.7,2
-0.8249,0.4375,0.2922,0.029,77.7,101.0,33.68,3
0.1755,-0.2931,0.3636,0.988,75.9,80.1,33.4,4
0.049,0.0449,-0.0901,1.593,66.4,53.4,34.16,3
-0.2991,-0.7488,-0.3492,1.068,89.6,94.7,33.97,6
-0.8769,0.382,-0.9629,1.488,81.1,118.2,33.53,8
-1.9339,1.4576,0.2791,2.918,76.1,115.2,33.71,8
0.226,0.0095,-0.3776,1.858,76.4,65.6,33.8,5
0.3038,-0.3971,0.2372,0.305,70.2,74.0,33.75,1
0.0784,0.3337,0.085,1.356,70.9,74.6,33.76,5
-0.0728,0.0699,-0.0126,0.347,66.6,47.3,33.91,1
-0.0336,0.0586,-0.0146,1.347,77.0,57.5,33.4,3
0.7407,-0.462,0.0471,1.392,76.2,91.2,33.46,6
0.0126,-0.0359,-0.0127,1.345,74.4,81.7,33.58,6
-0.0768,-0.0186,0.0272,1.182,78.6,61.1,33.64,3
0.0354,0.0134,-0.0493,1.671,66.1,51.0,34.06,4
0.9599,0.387,0.4253,0.73,78.1,92.4,33.88,4
-0.4326,2.1032,0.8178,1.892,82.5,114.4,33.56,8
0.405,-0.119,0.3612,2.054,71.8,63.8,33.85,6
-0.7093,-0.7297,-1.4568,1.792,77.2,99.2,33.69,7
-0.3589,-1.2886,1.0255,1.851,85.4,119.2,33.55,8
0.2068,-0.7235,0.7394,1.916,70.6,95.9,33.67,7
0.0401,-0.0994,0.0865,1.068,69.7,60.2,34.12,2
-0.0587,-0.4349,-0.9564,1.019,75.7,88.0,33.58,5
0.0285,-0.0291,-0.0256,1.191,71.0,51.2,33.87,2
0.0881,-0.0501,0.0988,0.66,61.5,58.6,33.94,1
0.1977,1.2815,3.4762,2.433,87.0,111.6,33.97,8
-0.0432,0.0195,0.006,0.032,67.3,51.9,34.12,1
-0.3089,-0.2424,-0.4504,1.631,76.3,76.3,33.64,6
-0.0272,-0.1112,0.0511,1.501,73.9,52.7,34.16,3
-0.0982,-0.3731,-0.1336,1.372,70.0,80.2,33.63,6
-0.0223,0.2868,0.0794,1.295,66.9,69.9,33.75,4
0.1353,0.3219,-0.0768,0.77,67.9,80.9,33.76,3
-0.0582,0.0172,-0.0508,1.21,84.0,54.5,33.72,2
0.0533,0.1934,-0.2327,2.167,70.6,67.8,34.13,6
0.0535,0.07,0.0256,0.464,71.9,53.7,34.24,1
-1.5255,-0.545,1.8537,1.821,80.9,110.8,33.76,7
-0.0484,-0.0082,-0.0544,0.572,68.4,54.8,34.2,1
0.112,0.2081,-0.6883,0.881,82.0,76.8,33.44,3
0.0813,0.2935,-0.3003,1.506,77.5,78.0,32.93,5
-0.0751,0.152,-0.0153,0.358,76.4,63.4,34.91,1
-0.1384,-0.0595,0.0345,1.91,75.9,83.1,33.2,6
-0.0135,0.058,0.0074,0.574,63.5,50.4,34.34,1
0.0561,1.6847,0.6621,2.293,81.9,88.9,33.64,7
0.0743,-0.0299,-0.0128,1.46,65.5,54.0,34.42,3
1.1728,1.0821,-3.0635,2.389,86.2,119.7,33.35,8
-0.1878,-0.045,-0.1976,0.217,72.1,66.3,33.83,1
0.7506,1.5404,1.0473,2.974,71.7,124.8,33.34,8
0.0529,-0.1081,0.3958,1.004,67.7,76.1,33.94,4
0.4507,-0.2659,0.0734,1.273,63.9,64.7,33.79,3
-0.3352,-0.0149,-0.0763,0.741,70.2,60.1,33.49,1
1.9195,0.2252,0.1952,2.664,86.3,116.4,33.37,8
1.0294,-0.228,-0.1109,2.007,72.2,116.7,33.41,8
-0.3224,0.0777,-0.7162,2.964,90.3,114.1,34.08,8
0.0051,-1.2292,-2.6127,0.535,82.7,113.5,33.39,5
-0.0693,-0.0574,-0.0063,0.709,72.9,57.0,33.75,1
0.068,0.0827,-0.0409,0.978,74.1,52.2,34.37,2
-0.0719,0.0756,-0.0668,0.968,73.8,48.9,33.79,1
-1.5138,2.295,0.0998,1.367,78.8,122.7,33.8,7
-0.014,-0.6522,0.8809,2.378,70.7,95.9,33.12,8
0.0147,0.0621,-0.1004,1.509,65.7,52.9,33.37,3
0.0135,-0.0989,0.1029,0.785,68.8,61.9,33.95,1
-0.0809,0.0004,0.0599,1.124,71.0,56.8,33.83,2
-0.1368,-0.5267,0.64,0.425,70.9,81.3,33.78,2
0.0029,-0.0942,0.0467,0.716,69.0,50.2,33.78,1
0.0613,0.0472,-0.1164,0.036,64.0,51.6,34.1,1
0.0262,0.0331,-0.0108,0.385,64.4,53.5,34.0,1
0.5499,0.2122,-0.6884,0.924,65.6,94.5,34.09,6
-0.0128,-0.0544,-0.1088,1.047,73.1,53.5,34.14,2
0.0325,0.0206,-0.0361,0.179,68.6,60.0,34.24,1
0.0524,-0.0701,-0.0021,0.709,63.1,51.9,34.25,1
0.1143,-0.3965,-0.1612,2.449,75.4,78.6,34.41,7
0.6102,-0.0198,0.4333,1.088,70.5,78.8,33.8,4
0.1115,0.0673,0.0273,0.817,75.1,53.9,34.13,1
-0.0966,0.0551,0.0453,1.54,70.0,61.4,34.02,4
0.1275,-0.2089,-0.7345,0.767,71.9,75.1,34.01,2
0.0601,0.0373,0.8059,1.745,74.1,104.7,34.34,8
0.1183,0.2509,0.0106,0.95,76.5,73.9,34.01,4
0.4096,0.761,1.6726,1.464,76.4,99.0,33.99,6
-0.2108,-0.3129,0.0535,1.276,64.0,77.9,34.2,5
1.2845,0.4638,-0.5663,2.207,83.6,94.4,33.6,7
-0.0186,0.0384,-0.067,0.898,74.1,57.6,33.26,1
-0.0074,1.6666,-0.3489,2.627,79.7,116.3,34.25,8
0.2846,0.3511,-0.1793,1.906,76.1,92.3,33.41,7
0.0305,-0.0451,0.0811,0.744,70.7,57.0,34.23,1
0.0344,0.052,0.0208,1.424,76.4,55.5,34.49,3
-0.0145,-0.1175,-0.0508,0.533,75.2,58.8,34.24,1
2.0207,1.3734,-1.1636,1.825,71.7,109.3,34.21,7
0.0587,0.0076,-0.0178,0.1,75.9,63.2,34.13,1
-0.1143,-0.4125,0.4293,0.698,83.0,71.2,33.6,2
0.0751,-0.1255,-0.0234,1.223,69.3,47.4,33.94,2
0.0636,-0.0229,-0.0153,2.024,77.0,50.5,33.29,4
-0.2622,-0.0316,0.0776,1.652,78.4,73.6,34.28,6
0.6882,-0.0095,-0.8484,2.147,91.5,85.1,33.31,7
0.0854,-0.3842,0.6313,1.32,78.9,70.6,33.95,4
-0.0128,-0.0148,0.0256,1.476,63.2,58.1,34.03,4
0.0157,0.0226,0.033,2.242,67.3,52.9,33.83,5
-0.2637,-5.1369,-0.0734,2.34,85.2,118.5,33.53,8
0.0973,-0.0113,0.0308,0.49,78.2,71.2,32.81,1
0.0226,-0.0262,0.0174,0.795,71.5,53.5,34.06,1
0.1399,-0.1796,0.1664,0.778,66.0,78.1,33.81,4
0.6851,-0.8147,1.0134,1.797,78.9,128.5,33.4,8
0.054,0.0097,0.0084,0.724,62.6,54.0,33.44,1
-0.0064,-0.0948,0.0428,1.461,66.6,59.8,33.83,4
0.5942,-0.2717,0.9233,2.321,79.5,102.7,33.52,8
0.0153,0.0205,0.0101,0.397,73.9,50.1,33.93,1
0.5445,0.3766,0.9635,1.428,86.3,88.1,33.92,6
-0.1864,-0.2648,-0.215,2.046,75.8,74.0,33.34,6
0.0712,-0.0103,-0.1062,0.811,60.5,58.3,34.13,1
0.0052,0.014,-0.044,0.328,65.4,51.8,34.17,1
0.5102,-0.6034,-2.2468,2.313,76.6,118.4,33.71,8
-0.2498,0.0152,-0.5201,0.744,77.5,76.4,33.25,2
1.0558,-0.1184,0.9238,2.308,81.9,121.9,33.85,8
0.3897,-0.4375,-0.8035,1.549,72.7,88.9,34.1,6
-0.1725,0.5287,0.8345,1.752,77.2,94.0,33.97,7
-0.0079,0.0472,-0.045,0.782,75.1,56.3,34.19,1
-0.2557,-0.0877,-0.182,0.41,72.2,78.6,34.0,2
0.0283,-0.0496,0.0094,1.992,69.0,60.7,34.0,5
0.9351,0.6308,-1.4263,2.287,82.7,118.2,33.77,8
0.0123,-0.0728,0.0052,0.208,74.9,53.0,33.92,1
-0.9462,0.3992,-1.2419,1.996,81.6,90.7,33.66,7
0.0393,-0.0748,0.0061,1.802,62.6,52.7,34.3,4
0.0639,0.1147,0.1236,0.959,77.4,53.1,34.54,1
-0.0176,-0.0424,-0.0966,1.192,70.0,55.7,33.9,2
-0.4751,-0.0143,0.0514,0.55,67.2,77.4,34.28,3
0.6866,0.9615,0.0589,1.396,79.5,89.0,33.7,6
-0.0799,0.0089,-0.0052,1.201,78.8,51.6,34.0,2
0.2074,0.0729,0.3831,0.984,64.5,73.5,33.7,4
0.1318,0.2841,-0.0188,1.058,75.2,78.2,34.25,4
0.0324,0.0064,0.0573,0.72,69.9,53.0,33.75,1
0.3142,-0.288,-0.1471,2.35,66.3,77.2,33.34,7
-1.0631,-0.5108,-0.0384,1.733,69.0,98.1,33.57,7
0.1138,-0.0215,0.0578,1.512,66.4,61.8,34.0,4
0.0053,0.0601,-0.0521,0.862,78.1,58.8,33.97,1
-0.6711,-0.3696,-0.2473,0.439,69.8,76.9,34.0,2
0.0234,0.0223,0.0046,0.532,62.1,58.8,34.11,1
-0.5166,1.3867,0.8393,1.993,86.6,100.3,33.61,7
0.0068,0.022,-0.0145,0.675,65.3,64.0,34.47,1
1.2108,-0.0003,0.7207,0.046,70.1,95.2,33.88,3
-0.0367,-0.0811,0.0325,1.504,75.6,56.7,33.71,3
0.0435,-0.0086,-0.0026,1.653,70.8,71.8,33.77,6
-0.1522,0.3329,-0.1865,1.075,71.0,73.6,33.28,3
0.1126,-0.0533,-0.1227,0.647,68.2,51.0,34.04,1
-0.0397,0.3635,0.3392,0.505,79.1,67.7,33.44,1
3.9023,-2.1768,0.3443,2.906,82.9,109.4,33.29,8
-0.0689,-0.1232,-0.1808,0.985,69.7,66.3,34.07,3
0.0275,-0.0086,-0.0421,0.923,67.4,56.2,33.86,1
0.1971,0.0554,-0.1762,0.558,73.9,82.5,34.1,4
2.1858,-1.1746,-0.6143,2.126,88.1,119.7,33.88,8
-0.304,0.4191,0.0985,0.346,83.3,73.4,33.4,1
-0.0913,-0.2506,-0.254,0.993,81.6,74.4,33.81,3
0.042,0.0424,-0.0904,0.103,69.8,50.7,33.64,1
0.3127,-0.1037,-0.0565,0.574,61.2,71.9,33.26,2
0.1385,0.1131,-0.1866,0.668,66.8,65.2,34.58,2
-0.0577,-0.0651,-0.0633,0.84,71.0,55.3,33.71,1
0.2636,0.3509,-0.1233,0.54,74.7,85.5,33.78,4
-0.0317,0.0081,-0.0098,0.649,72.6,54.9,34.04,1
-0.0043,0.0209,-0.004,0.615,71.9,56.8,33.97,1
-0.1121,0.2477,0.0445,0.939,65.5,71.8,33.63,4
0.3796,0.1858,0.2815,1.323,66.8,78.6,34.16,5
0.0148,-0.0033,0.0457,1.367,63.4,52.3,34.24,3
0.1621,-0.0254,0.3976,2.013,77.4,82.7,34.08,7
0.0106,0.0508,0.2645,2.05,70.0,74.8,34.27,7
0.1362,0.0922,-0.2118,0.422,76.1,81.5,33.66,2
-2.4308,1.9377,0.8114,1.837,82.6,115.5,34.57,8
-0.0123,0.0378,0.0346,0.921,69.9,55.6,33.8,1
-0.0155,-0.0824,0.0649,0.178,74.2,55.7,34.36,1
0.0744,0.0048,-0.0337,0.129,69.5,53.2,33.89,1
-0.0169,0.0216,0.0021,0.112,75.0,56.0,34.25,1
-0.0408,0.0575,-0.0372,0.248,78.6,52.7,33.89,1
-0.9504,-0.2499,-0.2008,2.797,77.1,108.5,33.56,8
0.0555,-0.0404,-0.0011,0.081,68.9,60.4,33.86,1
0.4276,-0.393,0.5155,1.991,74.8,86.6,34.45,7
1.1904,0.2751,-0.4889,2.042,71.0,120.6,33.37,8
-0.0309,0.0097,0.1153,1.197,65.8,58.6,33.87,3
0.0576,0.0011,-0.0453,0.263,68.3,51.9,34.32,1
-0.4208,-0.045,0.6805,2.312,69.0,73.8,33.9,7
0.4582,-0.1164,0.2986,1.52,72.2,73.0,33.42,5
-0.3335,0.4804,-0.1723,1.034,73.8,76.7,33.47,4
-0.13,0.0141,-0.0645,1.673,91.9,96.3,33.61,7
0.084,-0.0717,-0.0736,1.704,67.6,50.8,34.38,3
-0.8244,1.6138,-0.0756,2.042,75.9,100.1,33.84,7
0.0253,-0.2361,0.0143,1.987,66.2,65.6,33.68,5
-0.0059,-0.0493,0.0127,1.525,63.9,60.2,34.11,4
-0.1018,0.396,0.1339,0.834,75.5,80.4,33.85,4
-0.0221,0.2848,-0.0692,1.566,75.6,71.5,33.9,5
-0.0174,-0.0352,0.0429,1.914,65.5,49.9,33.68,4
-0.6687,0.4842,0.6082,1.233,77.8,94.6,33.93,6
0.8239,0.4123,-0.7323,1.989,75.7,95.6,34.19,8
0.012,-0.0043,-0.0017,0.243,65.9,48.1,33.69,1
-0.0136,-0.0079,-0.0221,0.703,60.9,58.6,34.18,2
-0.1112,0.0994,0.1414,1.645,67.1,68.3,33.21,5
-1.1399,-1.338,1.2633,1.151,83.5,122.0,33.63,7
0.1417,-0.1163,-0.0475,0.607,64.0,77.3,33.92,3
-0.0114,0.0229,-0.0118,1.207,67.4,59.3,33.97,2
2.1609,-0.0509,-0.0541,2.041,78.1,97.3,33.83,7
0.0497,0.0902,0.1111,1.388,63.4,49.7,34.13,3
0.0372,0.0587,-0.0175,0.712,68.2,58.1,34.25,1
-0.089,0.042,0.0706,1.427,62.3,56.7,34.23,3
0.1378,-2.0404,-0.0187,1.717,78.8,115.1,34.14,8
-0.0188,0.0207,-0.0895,0.526,74.1,48.4,34.4,1
-0.3463,0.5243,0.5152,0.281,73.5,75.0,33.75,1
-0.018,-0.0644,-0.0175,0.714,64.6,55.1,34.02,1
-0.0014,0.051,-0.0196,0.679,63.4,58.4,33.89,1
-0.135,-0.6488,-0.3654,1.802,78.8,73.0,33.84,5
0.4541,-0.2196,-0.0617,2.405,80.1,86.6,33.77,8
-0.0754,-0.1566,0.2804,0.417,77.5,81.7,34.08,3
-1.1597,0.7798,1.3961,3.144,74.7,105.6,33.63,8
-0.0569,0.0027,-0.0787,0.178,73.7,49.5,34.0,1
0.3395,-0.2674,0.0878,2.367,67.5,77.0,33.49,7
0.1462,-0.4214,0.2522,1.501,65.2,61.2,34.03,3
0.497,-0.4505,-0.3886,1.944,77.7,68.5,33.64,5
0.3184,0.2099,0.3732,1.291,76.8,72.0,33.26,3
-0.3185,0.3067,-0.5131,0.359,78.9,71.0,33.63,1
0.0072,-0.0371,-0.0186,1.113,62.1,57.0,33.26,2
0.8443,0.6652,-0.5195,2.029,70.0,92.9,33.7,7
-0.0084,-0.0297,0.1225,1.572,65.1,57.7,34.0,4
0.1776,-0.659,0.5008,2.387,76.5,91.3,33.38,8
0.0287,0.3307,-0.1075,1.807,72.6,75.1,33.85,6
-1.3072,1.0633,-0.9974,2.245,79.7,113.6,33.41,8
-1.13,0.4125,-0.588,1.083,84.4,99.3,33.24,5
-0.0211,0.1856,-0.0357,0.621,71.9,69.0,33.75,3
-0.1213,1.9187,0.4067,1.685,89.0,118.7,33.53,8
-0.0292,0.028,-0.0624,0.966,77.9,56.3,34.08,2
0.3934,-0.0352,-0.142,1.737,71.6,77.3,33.32,5
-0.1786,-0.5379,0.0053,1.965,77.0,66.8,33.93,6
0.0337,-0.0464,-0.0348,0.989,70.0,53.7,33.6,1
0.7423,-0.4512,0.2987,0.788,69.9,86.8,33.61,4
0.1931,-0.171,-0.1148,0.669,70.4,78.0,34.06,3
-0.2999,-0.0843,0.1081,1.495,79.3,73.1,34.21,5
-0.0695,0.0314,0.0311,0.72,69.8,52.2,33.83,1
-0.0115,-0.0007,0.0425,0.582,74.0,63.0,33.78,1
-0.155,0.2852,-0.2323,1.807,81.4,78.5,33.38,6
-2.5785,0.8154,-0.6788,1.065,81.0,112.0,33.24,6
0.0626,-0.6133,0.7777,1.903,82.4,84.9,33.66,7
-0.0297,-0.0078,0.0501,0.781,66.3,57.9,33.68,1
1.2173,0.4999,2.1394,1.92,94.3,115.8,33.42,8
-0.5321,0.386,0.4,2.065,74.5,100.9,34.1,8
-0.2049,-1.5909,-0.3295,1.371,75.8,91.0,33.54,6
0.0113,0.0835,0.0941,0.822,71.0,56.6,33.76,1
0.4763,0.0728,0.1052,1.17,75.0,70.8,34.13,4
0.0868,0.5322,-0.4244,1.252,76.2,78.9,34.32,5
0.0271,-0.0587,0.0137,0.239,76.5,52.1,33.9,1
-0.0323,0.0408,-0.0434,1.4,70.8,53.5,34.12,3
0.0356,0.0472,0.0005,0.683,61.7,51.4,34.05,1
-0.0436,0.1187,-0.007,0.144,75.3,52.6,34.25,1
-1.6709,0.7274,0.5051,2.635,82.1,117.7,33.43,8
0.1665,0.5023,-0.3005,1.867,78.1,89.1,33.59,7
0.0306,-0.1913,-0.2884,0.581,69.7,70.3,33.44,1
0.0343,-0.0481,0.0491,0.151,73.7,54.6,33.97,1
0.06,-0.0412,0.1234,0.674,66.0,73.8,33.15,2
0.1058,0.1276,0.2977,1.788,77.9,82.4,33.24,6
-0.1689,0.2015,-0.1968,0.24,71.1,67.8,33.57,1
-0.0376,-0.1083,0.0075,0.059,69.3,51.0,34.24,1
-1.1871,2.4889,-0.6562,1.454,77.9,118.1,33.52,7
0.0386,-0.0509,-0.0003,0.424,56.5,40.7,34.51,1
-0.0154,0.0155,-0.0017,0.962,63.1,64.8,33.98,3
-0.3801,0.2668,-0.2039,0.552,73.0,75.0,33.48,2
-0.7707,0.985,-0.021,0.305,76.2,97.6,34.49,4
0.1901,-0.2855,0.226,0.925,75.8,69.3,34.21,3
0.8863,-0.0617,-0.364,0.532,79.1,91.4,34.23,4
-0.1935,0.7659,-0.4757,0.539,70.3,77.1,33.83,2
1.281,0.4322,-0.9788,1.121,74.0,89.5,33.54,5
0.0619,0.027,-0.0057,0.917,72.9,56.3,33.94,1
0.1246,-0.1551,1.5125,1.671,81.6,89.8,33.87,6
-0.2086,0.4204,0.2577,0.208,71.7,76.4,33.56,1
-0.0291,0.0479,-0.0049,0.893,79.8,56.3,33.92,2
0.0286,0.4006,0.3362,2.044,70.5,82.1,33.66,7
0.9604,-0.0558,0.2561,1.357,77.3,67.1,33.06,3
0.4316,-0.143,-0.4541,0.685,70.1,79.5,33.96,3
-0.0242,-0.0817,-0.0312,0.479,69.6,60.8,34.59,1
0.0049,-0.0127,-0.0083,0.209,67.4,60.5,34.17,1
-0.6984,1.4606,0.1471,1.733,79.0,97.1,33.88,7
0.0307,-0.258,0.5387,0.89,76.2,81.5,33.71,4
-0.1322,0.2227,0.3151,1.247,89.2,75.8,33.7,4
0.0167,-0.0427,0.0381,0.61,70.6,51.3,33.72,1
0.0865,-0.0705,0.1205,1.067,65.9,55.0,33.7,2
-0.0043,0.0786,0.0302,0.261,56.3,57.4,33.58,1
-0.5133,0.1678,0.9332,2.065,76.9,101.3,33.12,8
0.9938,-0.7126,0.3956,1.316,72.5,109.4,33.86,7
0.2621,0.1902,0.5729,0.657,72.2,81.7,33.55,4
0.0874,0.0516,0.0653,1.084,66.0,47.1,34.17,1
-0.0632,0.0327,-0.0789,1.675,73.4,64.3,33.92,5
-0.1595,0.6481,0.0479,1.255,72.0,77.2,34.09,5
0.028,0.0196,-0.0859,1.028,66.6,50.0,33.66,1
-0.024,0.0554,-0.0538,0.579,62.5,53.8,33.65,1
-0.0933,1.1931,2.0305,2.493,76.4,94.0,33.36,8
0.0397,0.1285,0.0177,0.919,67.5,60.5,33.86,1
-0.0836,0.0365,-0.1287,0.595,72.0,60.2,34.21,1
0.0537,-0.1278,-0.0095,1.411,68.5,81.4,33.59,5
0.2355,0.2011,-0.1011,0.668,79.2,74.4,33.47,3
-0.0429,0.0609,-0.0248,1.783,72.6,53.1,34.37,4
0.7882,-0.1776,-0.2248,1.825,74.3,93.4,33.67,7
0.0419,-0.0964,0.0984,0.349,63.9,53.8,34.26,1
-0.0838,0.1009,-0.0495,0.648,61.5,50.0,33.91,1
0.4509,0.3337,0.1019,0.67,72.8,81.3,33.55,3
-0.0846,0.0941,-0.0407,0.702,65.3,52.6,34.02,1
0.0282,-0.0596,-0.0352,0.895,64.1,61.2,34.28,1
0.2633,-0.0299,-0.2553,2.186,77.1,76.2,33.6,7
-0.0577,0.0273,0.1335,1.747,67.6,53.6,34.04,4
0.1845,0.1521,0.4796,1.225,77.1,70.3,33.9,3
0.0455,0.05,0.0505,0.46,75.9,55.0,33.58,1
-0.148,-0.0803,-0.0843,1.039,60.7,54.2,34.65,3
-0.0426,0.039,-0.024,2.274,74.0,47.6,33.74,5
-0.5593,0.517,0.3898,2.057,69.1,83.3,33.28,7
-0.0849,0.6838,0.479,1.727,71.2,87.5,33.91,7
-1.4317,0.2145,-0.9403,1.626,85.9,94.6,33.49,6
2.6971,2.166,-1.6659,2.429,79.5,102.8,33.6,7
0.0049,-0.0202,0.0055,0.302,65.4,57.3,33.92,1
0.3866,-0.3099,-0.0835,1.886,73.0,81.2,34.14,7
0.407,-0.6487,0.1215,0.224,76.6,75.5,33.3,1
-1.5424,0.2955,-0.4821,2.56,77.3,108.3,33.69,8
-0.0742,-0.4807,-0.0714,1.4,68.0,68.6,33.52,4
0.1515,-0.9745,-1.1361,2.053,76.0,94.4,33.51,7
0.2303,0.1325,-0.197,1.624,81.2,91.2,33.97,7
-0.2773,0.1504,-0.5305,1.712,76.0,82.8,33.62,6
-1.0521,0.0969,-0.3074,1.386,88.3,92.9,33.44,6
0.0353,-0.0262,-0.0055,0.003,73.2,57.8,34.34,1
0.086,-0.005,-0.0467,0.014,67.4,55.6,33.85,1
-0.0781,-0.5349,-0.0382,1.711,78.2,82.1,33.28,6
-0.0536,0.0111,0.0118,0.655,70.8,55.6,34.29,1
-0.0394,-0.0465,0.0038,0.745,74.5,63.0,33.53,1
0.0054,-0.0354,-0.0483,0.911,76.7,48.6,33.8,1
0.2569,-0.4111,-0.3611,1.996,79.9,115.9,33.49,8
-0.0895,-0.0123,-0.0675,0.703,66.7,60.3,33.19,1
0.0005,0.5733,-0.3601,1.729,83.6,108.1,34.12,8
-0.7525,-0.9953,-0.8127,1.655,76.0,92.1,33.99,6
-0.0518,0.0349,-0.1014,0.247,70.5,52.9,33.34,1
-0.0397,0.0807,-0.0543,1.142,68.5,53.7,33.86,1
-0.0299,0.0256,0.035,0.549,67.0,51.1,33.66,1
0.6563,-0.1027,-0.3623,1.752,74.4,73.0,34.17,6
0.6568,0.2895,-0.9137,1.209,72.6,87.9,34.1,5
0.1148,0.0553,0.0167,1.078,74.0,50.6,34.79,2
0.1339,0.0603,0.4095,0.438,67.0,69.3,33.79,1
0.0917,0.0207,0.0568,0.191,76.9,53.5,34.44,1
-0.0047,0.0227,-0.0209,1.376,73.5,56.3,34.24,3
0.3498,0.2961,-0.0799,0.78,77.7,71.8,33.93,2
2.3429,-1.2942,1.4089,2.107,71.7,103.4,33.4,7
-0.5464,0.3775,0.4186,1.401,72.0,97.6,34.06,7
0.6668,0.5383,-0.4545,1.878,67.6,93.6,33.87,7
0.0752,0.0109,-0.003,0.669,69.8,60.3,34.04,2
-1.1041,0.4481,-1.0219,2.335,84.1,102.9,33.33,8
0.1651,0.066,0.1829,1.666,78.4,74.9,34.33,6
-0.576,-1.1245,0.7323,1.757,80.8,96.8,34.05,7
0.0771,0.0118,-0.0062,0.83,82.3,67.4,33.59,2
0.6306,-0.3837,-0.223,1.042,67.9,78.4,34.75,4
0.0131,-0.0133,0.0111,1.435,75.8,62.4,33.99,5
0.1074,-0.0083,0.0445,1.072,64.3,58.5,34.15,2
-0.0114,-0.5909,-0.4537,1.727,75.1,105.5,33.53,8
-0.8536,0.4486,-0.6227,2.148,82.3,89.4,33.67,7
0.5825,0.7644,0.1083,1.732,70.5,89.2,33.7,7
-0.0264,0.0412,-0.017,0.639,74.0,56.1,34.24,1
-0.0339,0.0621,-0.0533,0.533,64.4,54.0,33.67,1
-0.5841,0.6152,0.9721,0.602,71.0,92.1,33.5,4
0.1186,-0.1018,0.4413,1.456,68.4,100.1,33.68,7
0.1657,-0.0097,-1.0933,1.422,82.6,95.9,33.67,6
-0.0768,-0.0212,0.0179,1.154,69.3,57.8,34.22,3
-0.5029,1.2423,-1.1524,2.6,78.1,91.2,33.94,8
0.3161,-0.2917,0.3771,1.284,78.3,68.7,34.19,4
-0.7294,-2.4828,-1.1195,3.184,91.8,118.1,33.56,8
0.551,0.5481,-1.0686,1.699,86.7,112.1,34.31,8
-0.0657,-0.023,0.027,0.535,79.7,55.1,34.08,1
0.2674,-0.4773,0.0516,2.092,72.4,67.7,34.39,6
-1.4095,-2.076,-0.155,1.512,68.4,87.7,33.5,5
0.4083,1.5254,1.4024,1.677,74.3,120.7,33.92,8
-0.0763,-0.0332,-0.0946,0.098,65.6,56.3,33.85,1
0.3542,0.1202,0.5208,0.801,69.0,79.2,33.63,3
-0.0684,-0.084,0.0638,0.784,70.1,60.8,33.48,1
-0.0786,0.3493,-0.2464,1.951,67.6,80.1,34.0,7
-0.2002,-0.7256,-1.3918,2.326,76.7,96.5,33.84,8
-0.0834,0.0133,-0.0586,0.112,76.1,57.2,34.09,1
0.0789,0.0745,0.0765,0.186,72.8,64.7,33.58,1
0.1537,-0.1282,-0.3816,1.016,64.6,75.9,33.46,4
0.3022,0.2433,0.1751,1.767,64.7,83.5,33.38,6
0.4293,-0.3419,0.1873,0.284,77.7,67.7,34.42,1
0.0079,-0.0989,-0.0366,0.605,73.9,48.7,33.65,1
-0.1104,-0.0306,0.0078,0.696,62.4,44.6,33.77,1
-0.0381,-0.0893,-0.0272,1.012,74.2,56.2,33.87,2
-0.115,0.43,0.0294,1.317,77.6,74.8,33.63,4
-0.0282,-0.038,0.0175,1.133,75.2,47.7,34.01,1
0.2801,1.5104,-0.9156,2.171,86.4,114.7,33.33,8
-0.0044,-0.0791,-0.07,0.203,72.4,61.5,34.0,1
1.4976,-0.9558,2.6262,1.154,82.1,120.0,33.53,7
0.0792,0.2155,0.0785,1.356,79.3,75.4,33.86,5
-0.0944,-0.0127,-0.0293,0.077,71.5,55.2,34.15,1
-0.0238,0.0406,0.0068,1.202,59.5,51.2,33.87,2
0.0035,0.2463,-0.1579,2.045,65.9,96.6,33.46,8
0.0939,0.0404,-0.0352,1.609,64.3,60.7,33.93,4
2.492,-0.229,1.9303,1.742,83.2,110.6,33.71,7
0.0558,0.1045,-0.0276,0.594,75.7,52.2,34.2,1
-0.0358,0.0382,-0.1216,0.922,64.9,58.3,33.74,1
-0.2192,0.23,-0.1355,1.107,73.3,73.5,33.58,3
-0.0916,0.0077,-0.4232,2.253,71.6,71.4,33.85,6
1.4717,-1.1421,0.1228,1.368,83.2,115.0,33.73,7
0.0528,-0.0602,-0.0277,0.966,69.3,59.8,34.28,3
0.0802,0.015,-0.0423,0.591,70.0,54.8,33.67,1
-0.0067,0.0274,-0.0452,0.29,65.9,64.8,34.32,1
0.3607,-0.0137,-0.2963,0.772,71.4,88.1,33.25,4
0.2596,-0.2128,-0.2396,2.442,82.3,93.9,33.92,8
-2.963,0.9344,-2.8532,2.365,82.0,113.7,34.06,8
-0.096,0.3019,0.0628,2.19,80.2,79.2,33.93,7
-0.3225,0.0634,-0.3198,0.884,67.5,74.9,34.06,4
-0.1422,-0.0911,-0.3114,0.58,72.6,73.5,33.32,1
-0.039,-0.2881,-0.0171,1.556,76.8,76.3,33.65,5
0.016,0.0379,-0.0407,0.778,67.4,56.7,34.38,2
-0.0307,-0.0384,-0.0207,0.025,73.4,51.9,34.02,1
0.0752,0.0506,-0.047,0.8,68.3,54.0,34.82,2
0.0703,-0.0012,0.0924,0.953,66.2,48.2,33.92,1
-0.0594,-0.0647,0.0278,1.837,66.2,51.8,33.51,4
0.0745,-0.0635,-0.0117,1.028,75.3,57.8,34.16,2
-0.0053,-0.6643,0.0906,1.386,67.3,67.9,33.54,4
-0.1488,-0.0545,0.2634,0.495,78.3,65.8,33.89,1
0.0439,-0.0098,0.037,0.973,70.9,55.2,33.51,1
-0.0237,0.0138,-0.0017,1.198,67.1,51.0,33.66,2
0.1746,-0.2779,-0.0076,0.971,69.9,73.6,34.34,4
-0.0399,-0.0174,-0.2615,2.54,71.7,69.5,33.99,7
0.0467,-0.0593,0.1256,1.275,78.3,52.4,33.89,2
-0.0621,0.1044,-0.015,0.819,62.2,55.2,34.55,1
0.0341,0.0321,0.0172,0.502,64.9,50.6,33.84,1
-0.5525,0.8416,-1.6419,1.652,82.7,87.0,33.98,6
0.0507,-0.0208,0.0943,0.362,70.1,55.4,33.84,1
0.0292,0.0812,-0.017,0.265,67.3,63.5,33.98,1
2.6835,1.9588,2.9377,2.579,86.3,114.3,33.57,8
-0.1864,0.0755,-0.2858,0.495,66.4,65.8,34.31,1
0.1782,-0.3016,-0.1337,0.219,68.9,80.0,33.44,1
0.012,0.0103,-0.0285,1.604,73.0,61.2,34.16,4
-0.0041,0.0178,-0.0496,1.205,71.5,54.3,34.25,3
0.0711,-0.1578,-0.2675,0.742,71.5,77.2,33.99,3
0.0093,0.0368,0.0809,1.021,69.5,57.6,34.72,2
-0.4663,0.0029,-0.4262,0.43,76.9,78.4,33.61,2
1.5294,0.9906,1.7118,2.32,85.0,114.4,33.94,8
-0.0789,0.0515,0.0729,0.047,73.7,54.8,33.92,1
1.8958,-1.0458,-1.2806,2.675,75.2,118.8,33.15,8
0.0549,0.023,-0.0699,0.175,62.6,59.1,34.0,1
-0.0149,-0.0573,0.0823,0.879,73.4,66.6,33.85,3
-0.2681,0.1759,-0.0269,1.532,74.6,80.0,34.03,6
1.7738,1.3147,-1.8924,1.761,82.1,117.8,34.36,8
0.2992,0.0084,0.1222,1.148,79.0,73.1,33.92,5
1.7821,1.5255,0.3852,2.015,92.0,118.4,33.81,8
1.0071,-0.1741,-0.2453,0.601,92.6,92.8,33.71,4
4.3217,-1.2689,1.1152,3.11,84.3,111.6,33.89,8
0.0492,-0.0409,-0.051,0.579,69.2,59.2,34.47,1
-0.0027,-0.0037,-0.0,0.354,60.0,57.2,34.05,1
-0.0217,0.078,-0.0667,0.611,63.3,55.2,33.64,1
0.0114,-0.0983,0.0136,1.028,73.1,53.5,34.16,1
-0.4672,0.4167,-0.8592,2.367,80.6,99.4,33.95,8
-0.3568,-0.3402,-0.8358,1.262,81.1,97.4,33.6,6
-0.3241,-0.0132,-0.0385,1.121,70.0,79.6,33.73,5
0.0921,-0.0086,-0.0658,1.181,69.6,55.5,33.79,2
-0.166,-0.0159,0.2578,0.443,71.1,65.5,33.55,2
-0.0079,0.1173,0.1219,1.344,71.3,63.8,34.28,4
0.0107,-0.0249,0.0232,0.804,67.2,49.6,33.66,1
-0.1473,0.1584,1.3907,2.277,81.6,99.1,34.11,8
0.0278,-0.0607,-0.0391,0.253,59.9,55.1,34.1,1
0.6758,-0.1497,-0.6147,1.552,77.1,90.7,34.26,6
0.0189,0.077,0.0516,0.294,65.4,58.6,34.06,1
0.2564,-0.6852,0.8513,1.555,73.5,104.2,33.62,7
0.4045,-0.8167,-0.5795,1.375,78.8,93.1,33.5,6
1.3798,-0.0535,0.331,3.31,82.6,96.5,33.55,8
-0.3284,-0.0829,0.0425,0.945,71.3,78.6,33.6,4
0.0548,0.0027,0.0291,0.268,64.1,61.4,34.66,1
-1.1179,0.8584,1.0577,0.725,78.4,92.7,33.77,3
-0.0468,-0.0842,-0.0529,0.914,79.5,55.9,33.92,1
0.1145,0.0565,0.1126,1.359,71.7,71.4,33.5,4
0.2907,-0.2434,0.0304,1.642,74.9,67.8,33.4,5
0.0041,-0.011,0.0598,1.382,59.1,58.5,33.78,3
0.0225,0.0314,0.0593,1.214,70.8,45.4,33.76,1
-0.2872,-0.2182,0.0358,0.278,65.3,73.0,33.55,1
0.1255,0.02,0.0441,0.678,72.9,56.3,34.45,1
0.1939,-0.519,0.1098,2.005,77.0,80.2,33.99,7
-0.0597,0.3657,-2.2165,1.476,77.3,119.3,33.48,7
0.1332,0.2924,-0.0844,0.781,60.5,85.3,33.76,4
-0.3164,-0.0147,-0.1739,1.099,75.2,73.0,33.56,3
0.0096,0.004,-0.0501,0.606,59.9,61.1,33.37,1
-0.0516,-0.0081,-0.004,1.111,68.0,62.0,34.07,3
-0.0574,0.1179,-0.1818,1.297,61.1,77.8,33.6,5
0.0599,-0.0804,-0.0572,0.615,67.7,51.9,34.56,1
-0.0399,-0.1168,0.0773,0.528,67.5,53.5,34.1,1
-0.054,-0.3672,-0.0655,1.652,76.1,75.5,33.56,6
0.0916,-0.0311,-0.0195,0.912,80.1,51.9,33.55,1
0.1361,0.1145,-0.0601,1.35,75.4,73.8,33.83,5
0.1098,-0.1125,-0.2001,0.561,76.0,80.1,34.05,4
0.074,-0.014,0.0368,0.101,76.1,56.1,34.24,1
0.327,0.1074,0.2987,1.212,80.5,74.0,33.49,4
0.0544,-0.0071,-0.0322,0.319,64.8,54.1,33.71,1
0.1917,-0.3167,-0.1601,1.178,70.7,80.4,33.22,4
-0.2249,0.0143,0.2598,0.483,78.4,70.1,34.41,1
-0.053,-0.0451,0.0546,1.603,66.8,46.3,33.87,2
-0.0508,0.0109,-0.1355,1.305,76.4,78.8,33.49,4
0.0046,0.0608,0.0023,0.626,76.1,48.9,33.72,1
-0.3727,0.7748,0.1352,1.399,73.7,99.3,33.66,6
0.0411,0.0045,-0.3368,2.418,75.9,84.6,33.28,7
-2.6712,1.553,0.225,1.046,67.9,107.1,33.27,5
-0.0107,0.0339,0.1037,0.383,64.9,58.1,33.81,1
0.0315,0.0514,0.0831,1.339,65.5,48.1,34.18,2
-0.5508,-1.3662,-1.6138,0.863,85.5,100.2,33.38,4
-0.0552,0.0233,0.0181,0.46,70.3,53.6,34.6,1
0.0072,0.0289,0.0391,0.927,72.1,61.6,33.81,2
-0.0939,0.3869,0.6689,0.922,75.3,83.3,33.56,4
0.0009,0.0273,0.0467,0.789,69.4,48.2,34.11,1
0.0642,-0.0234,0.0024,0.325,63.6,60.5,33.43,1
0.0456,0.0666,-0.05,0.132,69.6,45.0,34.1,1
0.0277,0.0714,0.0549,0.379,77.0,49.9,33.76,1
-0.014,-0.2066,-0.016,2.652,59.9,88.1,33.21,8
-0.6645,-0.3191,-0.0776,1.316,66.6,94.6,34.1,6
1.7158,-0.2679,0.1725,2.286,72.5,106.5,33.7,8
-0.0831,0.5231,0.002,0.494,70.5,74.2,33.87,2
0.5484,0.1957,-0.052,1.338,66.4,75.1,33.78,5
0.3879,0.2717,0.4947,1.095,82.8,91.0,33.94,6
-1.4316,-0.0308,-1.6778,1.646,78.3,103.8,33.78,7
0.087,0.5828,0.3078,0.679,74.2,72.4,33.26,1
0.7063,-0.6525,-0.9834,1.87,83.9,92.4,33.85,7
-0.0007,-0.022,0.0322,0.206,68.3,60.5,34.23,1
0.7698,-0.3558,1.0532,1.633,77.9,101.7,33.24,7
0.001,0.448,0.0232,1.173,86.5,94.8,33.31,6
0.0018,-0.0384,-0.048,1.193,68.0,53.8,33.79,2
1.8209,1.0988,0.1114,2.457,77.9,92.7,33.1,7
-0.6187,0.1919,1.5197,1.394,75.6,86.0,33.41,5
-0.4773,0.2839,0.331,1.27,77.5,110.2,33.81,7
-0.1715,-0.5392,0.1622,0.756,68.9,73.6,33.07,2
-0.175,-0.3085,-0.3014,1.663,78.1,71.5,33.93,5
0.0308,0.0101,-0.0512,0.603,75.4,55.2,34.32,1
0.0486,-0.0082,-0.0702,0.93,75.0,57.0,33.67,2
-0.1116,-0.0605,0.2775,1.624,77.8,70.5,33.88,5
-0.5957,0.3054,-0.6236,1.674,82.2,91.7,33.88,7
-0.0016,-0.0626,-0.0532,0.279,71.0,58.5,34.22,1
-0.0155,-0.0098,0.0189,1.122,62.6,54.5,35.02,2
-0.1265,0.0595,-0.1153,0.27,63.8,78.8,34.33,2
0.0336,0.0156,0.0163,0.592,72.1,54.0,34.19,1
-0.1896,0.0119,1.1215,1.083,79.9,94.6,33.82,5
-0.0315,-0.0291,0.0229,0.65,61.0,44.5,34.04,1
-0.0682,-0.0419,-0.0283,1.165,73.1,60.8,34.81,3
0.5406,0.163,0.0773,2.17,77.1,70.0,34.13,6
-0.4671,0.4343,-0.2325,1.9,66.2,77.0,33.47,6
-0.5136,0.5276,-0.5391,1.578,80.1,75.2,34.42,6
1.1004,0.3675,-1.9948,0.602,71.6,92.1,34.21,3
0.6619,-0.0794,0.0089,2.324,78.6,81.1,33.68,7
0.5253,0.187,1.2114,2.044,69.4,100.8,34.07,8
2.2104,0.2802,0.4982,1.912,85.4,118.5,33.59,8
4.1217,0.7835,-0.9757,1.972,88.7,114.6,33.88,8
0.0897,0.0014,0.0046,1.505,74.0,60.0,34.12,4
-0.7503,-0.4373,2.7509,1.371,87.3,115.5,33.93,7
-0.068,-0.5578,-0.4245,0.271,71.0,70.6,33.85,1
-0.7224,-0.4079,0.4363,1.883,72.1,100.8,34.01,8
0.0518,-0.047,0.04,1.026,75.1,63.4,34.56,3
0.0091,0.0151,-0.0667,0.791,77.9,56.3,33.44,1
-0.6807,0.2712,-0.6566,2.945,72.0,98.2,33.44,8
-0.0012,-0.002,-0.0356,0.557,74.5,59.6,34.5,1
0.0634,-0.456,-0.1444,2.124,76.8,90.7,33.46,7
1.1426,1.4951,-0.4025,1.963,84.5,111.7,33.5,8
-0.28,0.1736,0.0706,0.411,71.0,72.8,33.71,2
0.1463,-0.1161,0.1334,0.374,68.4,73.7,33.94,2
0.0469,0.0108,-0.0733,0.828,79.4,49.2,34.25,1
-1.2207,0.6987,2.0084,2.202,89.0,117.6,34.52,8
-0.0053,-0.0141,-0.0215,0.533,68.7,61.7,33.87,1
-0.2012,0.4618,-0.7838,1.124,75.2,99.3,33.8,6
0.2418,-0.0031,0.277,0.232,71.1,78.9,33.35,1
-0.062,0.0148,0.1388,0.085,67.9,55.1,34.06,1
0.1713,0.213,0.049,0.071,78.7,79.9,33.32,1
-0.042,-0.0479,-0.0189,1.673,65.9,49.5,33.9,3
-0.0489,0.438,3.2821,1.719,84.1,115.2,33.59,7
-0.1719,-0.5093,1.885,2.259,79.0,122.1,33.68,8
0.2656,0.3006,-0.2476,1.294,79.5,78.5,33.78,5
-0.0541,0.0193,0.1237,1.527,57.8,53.1,34.29,4
0.2347,-0.2859,-0.5068,0.985,76.7,74.2,33.58,3
0.0249,-0.0326,0.0209,0.135,67.4,53.9,33.8,1
-0.0278,0.0708,-0.0419,0.782,60.3,57.7,33.25,1
-0.0702,-0.5327,-0.5724,1.711,68.8,84.4,33.81,6
-0.8187,0.0332,0.1056,1.635,70.3,102.4,33.56,7
-0.0703,0.0777,0.0254,1.515,85.6,95.7,33.61,7
0.3506,0.196,-0.0883,1.561,81.6,79.8,34.42,6
-0.1259,0.0195,-0.1738,0.796,68.2,74.6,33.66,3
0.7995,0.0981,0.2914,0.778,82.1,91.7,34.1,5
-2.0282,2.8507,-0.6738,2.431,81.2,104.9,33.75,8
0.0677,0.0458,0.0954,0.57,62.5,55.3,34.09,1
-0.1006,-0.0188,0.0056,0.667,77.3,48.8,34.6,1
0.4447,0.0098,0.4378,2.252,74.3,74.0,33.56,6
-0.0285,-0.0389,-0.0186,0.294,72.8,52.6,33.88,1
-0.3717,0.1994,-0.532,1.484,72.4,89.1,33.88,6
-1.8379,-0.6473,0.2392,1.24,73.0,96.9,33.61,6
0.2329,0.1602,0.0166,1.155,70.6,69.4,33.7,4
-0.369,0.622,-0.1876,1.674,76.6,93.1,33.3,7
-0.0178,0.0346,-0.0416,1.534,78.2,56.6,34.36,4
0.5284,-0.0922,-0.1597,0.004,75.2,70.8,33.57,1
0.5535,0.2326,-0.6931,1.417,78.5,97.1,34.0,7
-0.3738,0.1241,0.414,0.225,68.2,70.2,33.66,1
-0.1072,0.1556,-0.0331,2.127,75.3,80.3,33.42,7
-0.0172,-0.0017,-0.0668,0.759,68.2,53.2,34.0,1
0.0204,-0.0134,0.0779,0.356,76.2,58.0,34.44,1
0.0202,0.0199,-0.0439,1.257,63.9,57.1,33.71,2
0.0077,0.034,-0.0731,0.01,69.6,56.4,33.83,1
0.2656,0.0493,0.2215,0.746,73.8,78.8,33.65,3
-0.0596,-0.0667,-0.031,0.882,69.6,62.2,33.65,2
-0.1164,0.0568,-0.1101,1.115,75.1,73.0,33.62,4
0.0677,0.0998,0.1407,1.785,79.5,69.2,33.99,6
0.0823,0.0122,0.1177,1.321,65.9,50.1,33.8,2
-0.1068,-0.0068,0.0664,0.537,68.0,49.3,34.1,1
0.5286,0.2691,-0.3228,1.489,66.1,72.4,33.64,5
0.2474,0.2963,-0.0066,1.984,81.0,72.2,33.71,6
-0.0498,0.1021,0.0865,1.647,62.7,47.0,33.56,3
0.3863,0.3093,-0.0755,1.758,79.3,78.1,33.7,6
2.71,-0.6843,-0.9427,2.845,84.6,114.0,33.67,8
-0.0578,0.1104,0.0015,1.232,72.7,50.8,33.5,2
0.1752,-0.2114,-0.2268,0.574,73.6,79.1,33.93,3
0.095,-0.0155,0.0204,0.568,70.1,58.7,33.41,1
-0.5296,0.6782,-0.4516,2.29,75.9,96.3,33.49,8
-0.0138,-0.0508,-0.0317,1.274,69.9,49.6,34.22,2
0.4927,-3.5946,-1.6554,1.978,80.2,118.3,33.5,8
-0.0274,-0.1175,0.0137,0.086,73.6,52.5,33.18,1
0.2947,0.1408,-1.1352,2.523,94.1,93.0,33.33,8
-0.0169,-0.0121,0.0184,0.436,68.6,52.9,34.33,1
-0.1011,-0.0401,0.0207,2.516,79.9,74.8,33.33,7
-0.0507,-0.0824,-0.0651,0.039,65.8,50.2,34.08,1
-1.0321,-0.6315,-0.4772,1.814,87.5,96.3,33.23,7
-0.7594,0.1109,0.0875,2.177,75.1,76.1,33.9,7
0.0174,0.0026,0.0278,1.167,73.6,49.6,33.8,2
-0.0787,-0.3353,-0.3229,1.061,72.4,74.1,33.83,3
-0.3591,-0.2471,0.3289,1.418,77.2,74.2,33.8,5
-0.0128,-0.0323,0.0424,0.54,71.3,53.4,34.29,1
0.0285,-0.2581,-0.304,0.183,71.3,72.2,33.73,1
-0.3199,-0.4118,-0.0373,0.931,76.4,72.1,33.59,3
0.3106,0.0474,0.2715,0.025,84.3,72.0,33.9,1
-0.0199,-0.043,-0.0613,0.301,68.5,45.0,34.43,1
-0.5967,-2.138,1.3715,0.806,75.1,91.9,33.89,4
0.0168,-0.0175,-0.0268,1.298,67.4,56.5,33.77,2
-0.0744,-0.0069,0.0537,0.744,77.2,42.6,33.96,1
-0.0044,-0.0565,-0.0003,0.007,77.6,63.7,33.95,1
0.0009,-0.7065,-0.0264,1.342,77.1,103.4,33.72,7
-0.0126,-0.0402,0.0335,0.089,71.1,51.0,34.02,1
-0.0274,-1.1792,0.6421,2.643,74.7,100.8,34.04,8
0.1094,0.0477,0.0182,0.6,63.3,53.0,34.32,1
-0.826,0.0144,-1.909,2.889,84.2,112.2,33.7,8
-0.1668,-0.2043,1.4198,0.9,73.7,93.9,33.68,5
-0.0425,-0.0035,0.0205,0.183,66.7,53.1,34.02,1
-0.0095,-0.0145,-0.0425,1.099,72.1,53.4,34.08,2
-0.0004,-0.0212,0.0103,1.967,62.3,58.1,34.45,5
-0.008,0.1452,0.0469,0.538,73.8,69.9,34.19,1
-0.0614,0.0049,-0.0328,0.146,74.3,58.8,33.71,1
-0.0095,-0.3422,-0.2372,1.52,73.9,70.6,33.55,5
-0.0274,-0.0386,-0.0546,2.918,68.7,43.9,34.08,6
-0.0916,0.4376,-0.5709,1.354,79.8,104.0,33.8,7
0.1332,0.1013,-0.1413,0.826,65.3,82.1,33.96,4
0.0286,-0.0367,0.0453,0.357,76.8,58.8,34.0,1
-0.0014,-0.0732,-0.0004,0.817,59.2,59.1,33.8,1
0.0904,0.0283,-0.031,0.078,72.6,51.1,34.25,1
0.1449,-0.3201,-0.0762,0.387,83.0,70.9,33.47,1
-0.0105,0.0004,-0.053,0.188,56.9,69.5,33.98,1
-0.8747,0.2887,-0.0806,1.613,76.0,78.6,34.07,6
1.783,1.58,-1.046,0.834,76.2,99.4,33.85,5
1.5399,0.1759,0.5946,1.718,73.3,91.4,33.97,7
0.1023,0.1155,0.5645,1.792,66.7,87.1,33.84,7
0.0374,0.0064,-0.1124,0.776,77.7,48.8,33.93,1
-0.081,-0.1406,-0.5539,0.477,72.1,83.0,33.35,3
-0.0472,0.0453,-0.0172,0.333,59.0,58.9,33.75,1
-0.2449,0.1822,0.0606,1.077,72.2,76.7,33.46,4
-0.1758,-0.4605,-0.1947,0.74,67.5,70.1,33.44,2
0.632,0.2779,0.0843,1.041,81.4,84.0,34.01,5
0.0375,0.0009,-0.0323,0.303,71.5,56.2,33.58,1
-0.1939,-0.826,0.6379,2.264,72.3,101.9,33.47,8
-0.0786,-0.034,0.1074,0.939,67.2,48.4,34.15,1
-0.539,-0.7587,-0.7843,1.322,81.1,94.1,33.64,6
-0.0334,-0.0057,-0.0139,0.49,72.1,53.5,33.74,1
0.101,0.0669,-0.0707,0.189,68.0,50.5,33.39,1
-0.1243,-0.0266,-0.5804,1.788,71.8,74.3,33.52,6
-0.3828,0.4383,0.4009,1.85,70.6,92.7,33.34,7
-0.0122,-0.0209,0.0002,0.901,61.4,54.4,34.21,2
-0.3362,-0.4639,-0.3028,0.393,71.5,68.5,33.47,1
0.0599,0.0202,-0.0473,0.361,71.5,55.6,34.12,1
-0.4673,0.6345,1.057,1.75,83.2,100.2,33.96,7
1.0136,-0.2459,-0.8953,1.35,83.5,99.6,33.47,6
0.0212,0.1098,-0.0351,1.231,71.4,51.3,33.51,2
0.099,-0.4336,-0.0285,1.055,66.2,76.6,33.84,4
-0.0127,-0.0213,-0.0208,1.458,70.2,50.8,34.33,3
0.5435,0.2086,0.0559,1.957,70.2,93.4,34.12,7
0.0043,0.1274,-0.0326,0.748,68.2,72.0,33.89,3
-0.0925,0.7138,-0.134,2.57,78.8,96.9,33.26,8
0.4536,0.1479,-0.1077,1.327,69.2,69.9,33.26,4
0.0006,0.0204,-0.0533,0.155,70.0,50.6,33.46,1
0.0271,-0.0088,0.0302,0.85,62.2,54.3,34.01,1
0.0799,0.0715,-0.0242,0.489,70.6,47.8,33.86,1
-0.0703,-0.0208,0.0399,0.905,72.4,55.1,33.81,2
-0.4246,-0.4991,2.122,2.977,76.6,126.3,33.88,8
-0.0406,0.0061,-0.0424,0.266,73.0,60.9,33.91,1
0.0175,-0.0092,0.0111,1.174,71.5,54.5,33.77,2
0.1458,-0.9835,-0.6442,2.704,78.3,93.1,33.61,8
1.4143,-0.6438,0.1234,0.877,78.0,101.7,33.35,5
0.5766,1.0191,-0.8669,1.575,68.5,96.1,33.29,6
-0.05,0.0019,0.075,0.083,73.8,53.5,34.06,1
-0.0424,0.0414,-0.0101,0.527,67.3,51.5,33.92,1
-0.119,-0.0527,-0.0386,0.523,76.2,56.6,33.66,1
0.0276,0.0264,0.1377,1.086,73.8,84.0,33.73,5
-0.8117,-1.2362,-1.6946,2.08,80.3,113.9,34.13,8
0.0291,0.0189,0.1039,1.596,64.9,57.4,33.75,4
-1.4712,1.237,3.2425,2.633,76.7,120.0,33.46,8
-0.2659,0.4549,-0.2308,1.612,72.3,75.9,34.12,6
-0.4099,0.3976,0.5154,1.606,78.9,101.2,33.88,7
-0.0089,0.0717,0.0771,0.058,70.3,63.0,34.13,1
0.128,-0.0314,0.0506,0.603,67.1,58.2,33.4,1
-0.1899,0.4749,0.122,1.058,76.7,81.3,33.74,4
0.0145,0.0267,0.0874,0.369,79.5,54.8,33.61,1
1.2506,1.3666,0.2602,1.34,88.5,106.9,34.34,7
-0.0296,-0.0338,-0.0891,2.251,64.9,57.9,34.51,6
-1.0497,-2.7711,-2.8566,2.715,79.9,112.2,33.59,8
-0.9385,-0.8015,-0.9796,1.307,93.7,113.7,33.99,7
0.0474,-0.1842,-0.5739,1.781,75.5,75.7,33.79,6
0.0783,0.0576,-0.0369,0.275,76.4,47.1,34.15,1
-0.1332,-0.3226,0.4488,1.388,76.6,81.9,34.24,6
-0.159,-0.1466,0.0012,0.787,65.3,75.1,33.55,2
-0.0409,-0.0414,-0.0619,0.9,71.6,58.0,33.3,1
0.0366,0.0308,0.0236,1.241,65.9,49.9,34.21,2
0.1882,0.3263,0.8507,2.287,79.8,76.9,33.67,7
-0.0498,-0.0341,0.0177,1.169,74.8,45.7,33.8,1
-0.0235,-0.0223,0.0686,1.292,72.7,59.1,33.44,2
0.2284,-0.3133,-0.2568,0.678,75.5,80.8,33.23,3
-0.1223,0.163,0.1535,1.086,74.8,72.6,33.2,3
-1.6415,-0.4076,-1.3919,1.114,79.0,119.7,33.63,7
0.2282,0.4159,0.3477,1.046,66.7,71.8,33.99,4
0.0162,-0.1027,0.021,0.734,74.4,64.1,34.11,2
-0.0518,-0.1468,-0.3579,0.567,71.5,73.9,33.37,2
-0.0229,-0.1889,-0.0207,1.448,78.4,78.5,34.02,6
-1.8176,0.5832,-0.9978,1.803,74.0,101.1,33.29,7
-0.0697,-0.0431,0.0366,0.428,77.9,55.4,33.93,1
0.5767,-0.8939,-0.0842,1.696,74.3,90.6,33.1,6
0.4919,-0.151,-0.0497,0.189,66.6,77.1,33.88,1
-0.7237,1.4389,0.3664,2.473,84.6,107.1,33.36,8
-0.0837,0.0959,-0.7553,2.156,73.8,79.3,33.63,7
-0.0107,0.0792,0.007,0.109,69.2,58.2,33.43,1
-0.0608,0.0572,0.0005,0.485,64.9,58.6,33.96,1
0.1175,-0.086,-0.0977,0.226,74.0,68.3,33.94,1
0.0638,0.0435,-0.08,1.412,66.8,58.2,33.95,4
0.4608,-0.1491,-0.4867,1.292,75.4,76.1,34.21,5
-0.0012,0.0259,0.0014,0.84,85.1,54.7,34.22,1
-0.0481,-0.0435,-0.0139,0.171,63.1,56.1,34.27,1
0.0123,-0.0257,0.0442,0.25,66.7,62.6,33.34,1
-0.072,-0.0024,-0.0086,2.53,77.3,63.4,34.02,7
-1.6522,0.0512,0.3038,1.916,82.1,90.1,34.1,7
0.7978,-0.8801,1.2347,2.386,76.7,121.2,33.41,8
0.3348,-0.2828,-0.0284,1.314,70.9,69.4,33.89,4
-0.9579,1.4355,1.3008,1.895,82.2,126.2,33.41,8
0.2548,-0.1151,-0.2345,2.85,72.3,82.0,34.1,8
0.0339,0.0192,-0.0549,0.562,63.8,53.5,34.06,1
-0.1706,0.4263,0.1716,0.776,81.3,85.3,33.57,4
0.0146,0.0482,0.019,1.255,68.7,58.7,33.87,3
0.0461,-0.0168,0.0237,0.078,77.3,60.7,34.02,1
-0.4816,-0.1716,0.4086,1.211,73.4,74.6,34.13,4
-0.0034,0.4045,0.457,1.394,75.1,70.0,33.86,4
0.0623,0.0076,-0.0726,0.474,76.1,68.4,34.15,2
0.0396,-0.0162,0.0174,0.184,63.7,52.8,33.92,1
0.7471,-0.5171,-0.0557,1.709,70.8,81.9,33.73,6
-0.042,-0.0254,-0.0812,0.189,69.2,57.5,34.33,1
-0.0069,-0.0314,0.0054,0.743,64.0,51.5,33.88,1
0.6216,0.604,-0.3037,1.119,80.4,97.1,33.77,6
0.0506,0.024,0.0918,0.448,72.6,75.5,34.45,2
-0.0065,0.0514,0.0249,0.377,63.9,58.8,34.4,1
0.0334,0.0909,-0.0565,0.203,69.6,51.7,34.23,1
-0.1571,-2.2295,0.7588,0.928,72.1,93.3,33.86,5
-0.4088,0.0222,-0.0839,0.986,62.0,82.9,34.22,5
-0.1559,0.2933,0.1096,1.565,72.3,77.0,33.9,6
-0.0283,-0.0122,0.1077,0.96,68.9,46.3,34.12,1
1.0675,-0.7853,-0.6284,1.222,80.1,89.9,33.63,5
-0.0254,0.044,-0.0994,0.776,71.7,52.4,33.52,1
0.0078,0.0096,0.0128,0.303,73.3,48.0,34.11,1
-0.2255,0.0353,-0.3044,0.986,68.7,71.9,33.19,3
0.1811,-1.264,-0.8907,1.598,87.0,100.1,33.79,7
0.642,-0.0535,0.3059,0.537,65.2,78.8,33.44,2
0.0068,0.1219,0.0417,0.8,80.4,54.9,34.06,1
-1.1559,-0.8491,-0.0684,3.144,75.5,105.6,34.1,8
0.0299,0.0244,0.0431,1.003,67.3,54.9,34.01,1
-0.3467,0.7133,1.6261,1.385,72.1,100.7,33.87,6
-0.0373,-0.0274,0.0315,0.321,69.8,54.1,33.85,1
0.4425,-0.1654,-0.3496,1.613,81.6,90.1,33.56,7
0.0414,0.0574,-0.0807,2.0,62.2,49.1,34.12,4
0.314,-0.1798,-0.5493,2.546,75.4,68.9,33.37,7
-0.107,0.0036,0.0369,1.066,64.7,46.3,33.79,1
-1.072,0.502,-0.5611,1.384,83.5,89.3,33.05,5
0.023,0.1258,-0.1245,0.905,77.0,44.8,33.89,1
-0.1365,-0.0746,0.024,0.554,73.0,57.3,33.23,1
-0.0679,0.045,-0.0171,0.99,80.0,44.6,33.8,1
-0.039,0.0796,-0.0054,0.459,68.0,54.7,34.12,1
0.0132,-0.075,-0.0662,0.845,70.9,60.1,33.44,2
-0.1117,0.5932,-0.1004,1.541,71.4,73.9,33.47,4
0.3634,-0.232,-0.2113,1.03,88.1,83.6,33.21,4
-0.5071,-0.3435,-0.1474,1.67,72.8,86.4,34.47,7
0.0173,0.0268,0.0105,1.498,68.7,48.3,34.08,2
-0.8853,1.1379,0.6239,1.837,71.0,98.2,33.77,7
0.4628,0.4993,0.2508,1.331,70.4,96.7,33.01,6
0.0921,0.0485,0.053,0.054,70.9,59.2,33.61,1
-0.7019,0.447,-1.3453,0.898,79.0,95.1,33.22,5
-0.0355,0.0765,-0.0732,0.745,78.9,55.8,34.12,1
0.0347,0.0163,0.006,1.331,66.8,53.4,33.71,2
0.2062,0.0498,0.1535,1.659,71.5,70.0,33.78,5
-0.0713,0.0193,0.0422,0.16,72.0,54.8,33.96,1
-0.2197,-0.3873,1.5023,2.567,83.7,97.2,33.62,8
-0.6352,0.2568,-0.2804,1.302,73.0,91.6,33.78,6
0.0228,0.0159,-0.0554,0.788,72.3,56.6,34.16,1
1.479,0.344,0.3056,2.219,83.3,113.3,33.85,8
0.3572,0.3722,0.6872,0.293,66.6,96.1,33.64,4
-0.7036,-0.4653,0.5439,1.733,74.4,101.1,33.4,7
0.368,0.0474,-0.0579,2.597,80.8,87.5,33.76,8
-0.0229,-0.3787,-0.065,0.527,70.7,76.8,33.14,2
-0.0485,0.0005,0.0241,0.382,63.8,52.7,33.99,1
0.0695,0.0852,-0.2155,0.265,70.3,70.8,33.89,1
0.2714,-0.278,-0.1822,0.937,74.8,75.7,33.98,4
0.0332,-0.0196,-0.0554,0.722,63.7,49.5,34.04,1
0.0254,0.0505,0.0427,0.207,69.1,57.6,33.13,1
0.0736,-0.0588,0.0026,0.415,72.7,53.1,34.12,1
-0.112,-0.0807,-0.0089,0.402,70.9,57.6,34.07,1
0.0824,0.2884,-0.2037,0.227,69.1,71.3,33.8,1
-0.2896,-0.07,-0.1558,1.425,68.7,83.9,33.84,6
0.0026,-0.0052,-0.0538,0.561,74.6,56.7,33.61,1
-0.0426,0.0454,0.0017,0.6,78.6,49.4,34.18,1
0.003,-0.003,-0.0537,0.572,67.9,58.6,33.5,1
0.0509,-0.004,0.0392,1.092,70.6,51.4,33.92,1
0.002,0.0076,0.0102,0.404,63.5,53.5,33.79,1
-0.9492,-0.067,-1.3938,1.488,76.2,102.9,33.83,7
0.0182,-0.0394,-0.0049,1.093,70.1,53.5,34.29,2
0.0466,0.0401,-0.0216,1.438,78.5,50.6,33.95,3
0.3792,0.3106,0.3623,1.086,82.4,70.4,33.85,4
-1.1964,-0.7682,-0.0712,1.308,82.2,98.0,34.02,6
1.3489,-1.1152,-0.3979,1.143,80.3,98.9,33.68,6
0.0663,0.028,-0.0091,1.2,72.1,58.5,33.96,2
0.3151,0.2918,-0.3509,1.957,72.9,69.6,34.07,6
-0.0403,0.0801,-0.0113,0.929,63.0,52.6,34.3,2
-2.7517,2.0684,-0.029,1.369,79.7,118.4,33.48,7
-0.0615,0.0222,-0.0123,0.888,74.8,53.1,33.79,1
0.0131,0.0102,0.0038,0.361,66.2,59.4,34.29,1
-0.0356,0.0808,-0.0749,0.854,75.2,60.6,34.32,2
-0.3629,0.7594,-1.3372,0.953,80.8,99.2,34.03,5
0.0257,0.3581,-0.2762,2.486,81.0,69.7,33.83,7
-0.0224,0.0047,0.0536,0.202,73.2,54.9,34.54,1
-3.4097,-0.062,-0.9841,1.237,81.3,110.6,34.14,7
-1.8827,-1.1771,-0.1999,2.997,81.5,114.7,33.5,8
0.1238,0.2658,0.2056,0.591,77.8,78.1,34.27,3
-0.4792,-0.2928,-0.0298,0.419,58.6,76.2,33.42,1
0.8879,0.9778,-0.8269,2.046,88.5,114.1,33.74,8
-0.0979,0.4926,-0.2237,0.832,72.8,76.3,33.61,3
0.0277,-0.0373,0.0756,0.331,68.3,52.4,33.55,1
0.0903,0.0515,0.0313,0.29,66.3,51.7,34.23,1
-0.0394,0.1228,-0.0341,0.83,71.0,59.7,33.88,1
0.0245,-0.0168,0.0151,0.884,67.7,55.9,33.58,1
0.0469,-0.7811,0.4721,1.424,76.5,91.5,33.71,6
-0.3217,-0.0324,-0.1076,1.582,78.6,70.6,33.7,5
-0.0612,-0.0447,0.0032,0.942,69.3,53.7,34.18,2
-0.0664,-0.0183,-0.0161,0.293,72.4,49.8,33.99,1
0.3118,-0.7321,-0.6268,1.694,71.8,107.5,33.26,7
-0.1047,0.1521,0.7605,1.659,77.5,96.9,33.33,7
-0.1154,-0.0946,0.0538,1.1,73.8,84.5,32.92,5
0.0097,-0.0423,0.0815,0.251,73.1,58.1,34.05,1
0.0174,0.0479,0.0245,0.082,69.7,52.4,34.07,1
-0.0963,0.0289,-0.0739,0.395,63.4,51.1,34.27,1
0.0124,0.0089,0.0401,1.408,69.4,47.2,34.35,1
-0.5141,-0.1806,-0.1044,2.485,82.4,90.8,33.91,8
-0.2213,-0.2599,0.1313,1.631,62.4,76.6,33.75,6
0.9433,0.558,-1.6949,1.614,82.2,80.2,33.66,5
-0.357,0.6755,0.1862,1.841,79.2,101.7,33.99,8
1.4796,-0.2143,0.4976,2.119,71.6,91.7,34.31,7
0.0228,0.089,-0.0114,0.201,66.0,59.7,33.85,1
1.6145,0.2869,-1.6267,2.044,83.9,111.7,33.4,8
-3.0868,-2.1488,-1.2,2.233,88.4,116.4,33.82,8
0.0746,0.3241,0.329,0.735,76.3,72.4,33.6,2
-0.0089,0.0374,0.0344,0.469,65.4,58.7,34.08,1
0.0285,0.0319,-0.0861,0.319,61.8,58.9,34.35,1
-0.0197,-0.0315,-0.5278,0.534,64.5,75.3,33.51,2
-0.2912,2.2208,-1.221,2.02,82.2,114.4,33.43,8
-0.0633,-0.0888,-0.0241,0.167,71.6,55.8,33.64,1
-0.0671,-0.0088,-0.0185,0.327,70.3,56.2,33.87,1
0.2505,-0.2126,-0.1633,1.556,81.0,65.2,33.49,4
-0.0397,-0.1621,-0.207,1.248,79.9,69.3,34.06,4
-0.0219,0.054,0.0083,2.309,70.1,52.9,33.58,5
-0.1212,-0.2844,-0.2421,2.552,62.0,78.5,33.68,7
0.0379,-0.0311,-0.0253,0.107,71.0,54.4,33.74,1
0.0402,0.0149,-0.0898,0.413,74.1,57.5,34.6,1
0.0083,-0.0858,0.0622,0.349,70.4,76.9,33.75,2
-0.2712,-0.4045,0.1927,1.681,77.2,71.5,33.96,5
1.0697,-2.286,3.4603,1.244,83.9,117.2,33.73,6
3.1789,-0.584,1.2074,2.186,84.8,117.3,33.46,8
0.5691,0.0762,0.0375,0.865,77.8,61.1,33.89,1
-0.0208,0.0189,-0.0514,0.047,64.1,53.8,34.02,1
-0.4859,0.4919,3.168,2.865,92.8,118.4,33.99,8
0.0251,-0.0246,0.0337,0.329,80.4,57.1,33.96,1
-0.1625,0.0243,-1.3712,1.786,75.7,86.0,33.97,6
-0.061,0.0276,0.1161,0.102,76.6,47.6,33.87,1
-0.2422,-0.4243,-1.1147,2.213,79.0,92.9,33.94,7
-0.4261,-0.0825,-0.3691,0.839,67.4,76.5,33.63,3
0.6578,0.4,0.3117,1.951,75.9,96.2,33.6,7
0.0696,-0.0072,0.0118,1.298,72.7,54.3,34.04,2
-0.0153,0.1582,0.1896,1.853,80.0,79.7,33.36,6
-0.0617,0.0721,-0.0478,0.044,58.6,58.2,34.16,1
-1.2279,0.4636,-0.1651,0.29,79.2,93.4,33.71,3
0.502,0.3957,0.3269,2.046,71.3,99.6,33.65,8
0.009,0.425,0.123,1.354,76.1,76.5,33.94,5
0.1954,-0.1433,0.0796,0.229,74.1,69.9,33.82,1
0.1154,0.0677,0.0686,0.412,62.0,52.7,33.78,1
-0.0456,0.1084,-0.008,1.218,73.5,51.7,33.46,1
0.0303,-0.0059,0.0238,0.207,70.5,55.2,33.99,1
0.0122,0.0209,-0.0243,1.26,59.2,47.1,34.29,2
-1.0304,0.3156,-0.8694,1.706,78.1,86.6,33.65,6
0.9624,1.9353,-0.5488,2.813,81.6,113.6,34.35,8
-0.0731,-0.1335,0.1212,0.037,67.5,74.9,34.04,1
-0.1517,0.7079,-0.0185,1.215,81.5,96.5,33.79,6
0.032,0.0225,0.0334,0.087,70.0,57.2,33.68,1
-2.274,-0.0087,1.7191,1.967,79.2,119.1,33.85,8
-0.1486,0.724,0.0745,0.473,73.2,76.5,33.96,1
0.0536,-0.1909,-0.0865,0.954,77.3,82.5,33.32,4
-0.2054,-0.1602,-0.4502,1.166,70.7,86.3,33.27,5
-0.175,-0.4427,-0.2378,0.752,63.8,76.1,33.65,3
-0.0864,-0.0489,-0.0195,1.287,65.4,64.2,34.26,4
0.7334,0.1233,0.7699,1.446,72.6,98.9,33.35,6
0.0285,-0.1014,-0.0665,1.301,73.2,55.3,34.04,3
0.0979,-0.0895,-0.0085,1.32,81.3,74.3,34.23,5
0.0019,-0.0045,-0.0176,0.369,72.1,47.4,34.51,1
-0.0013,-0.0548,-0.0684,0.433,75.8,54.7,33.78,1
0.0469,-0.0279,-0.0944,0.62,69.4,54.7,34.12,1
0.3268,0.1348,-0.0382,1.738,70.1,69.7,33.28,5
0.053,-0.2354,-0.368,1.716,75.9,71.7,33.1,5
-0.0304,-0.0705,-0.3437,1.925,76.0,71.9,33.7,6
-0.9685,0.3363,0.4977,2.396,69.4,92.6,33.96,8
0.0143,0.0045,0.0797,0.455,75.6,65.3,33.54,1
-0.0587,-0.054,-0.0201,0.505,66.9,49.6,34.35,1
0.0386,0.0311,0.0381,0.888,63.8,56.6,34.13,1
-0.0566,-0.0184,0.0778,1.328,72.5,57.1,33.82,3
-0.7928,0.5761,0.2037,1.173,84.1,91.4,34.06,6
-0.0334,-0.0373,-0.0017,1.089,74.0,55.5,34.29,2
0.04,-0.0071,-0.0606,0.454,74.6,51.6,33.84,1
-0.0116,0.0289,0.0885,1.29,62.7,50.1,34.18,3
-0.0745,0.0797,-0.638,0.969,82.5,104.6,33.68,6
0.1676,0.4747,0.2196,1.048,65.9,79.4,33.82,5
0.1334,0.0281,0.0225,0.741,72.0,50.9,34.48,1
-0.0539,0.0771,0.0283,1.391,70.2,55.9,34.21,3
0.7458,-1.9487,0.5447,3.136,83.3,110.0,33.56,8
-0.619,0.4989,-0.1004,1.036,72.9,76.9,33.31,3
-1.9301,-0.8509,-1.7439,3.037,82.5,111.4,33.51,8
0.0938,0.3665,-0.3477,1.609,66.7,102.1,34.3,8
0.0654,0.0386,-0.0274,0.392,69.8,58.2,33.56,1
0.0211,-0.0323,0.0026,0.234,64.5,66.4,33.94,1
0.3128,-0.316,0.1027,1.344,68.2,74.0,33.94,5
0.0994,-0.1012,-0.0164,0.997,67.9,58.4,34.07,1
0.0459,-0.0622,0.086,0.152,72.6,63.4,34.51,1
-1.4181,-0.4642,-0.6403,2.381,79.5,98.8,34.49,8
0.4298,0.3401,0.2878,0.043,82.3,85.9,33.68,1
-0.0276,0.014,-0.0394,1.179,67.3,58.9,34.01,3
0.1467,-0.0411,0.4283,0.452,77.0,72.8,33.66,1
-0.0856,-1.6992,-1.0114,0.653,61.5,86.4,33.67,3
0.0292,-0.0815,-0.0428,0.801,71.6,48.7,33.82,1
-0.3053,0.086,-0.3428,1.034,81.9,69.1,34.26,4
0.1091,0.3018,0.3331,0.728,74.4,72.6,33.66,2
-0.0504,0.0666,0.1016,0.19,59.8,52.5,33.74,1
-0.2666,-0.0745,-0.6979,0.77,66.5,82.7,33.52,4
0.1305,0.0559,0.0285,1.355,77.5,55.8,33.47,2
-0.0458,0.2541,-0.1171,1.948,82.7,100.7,33.37,8
-0.0489,0.0674,-0.0101,0.877,74.6,58.5,34.3,2
0.0288,-0.0402,-0.006,0.6,70.9,54.0,34.1,1
-0.875,2.1742,-1.209,2.588,82.1,111.7,33.89,8
-0.0773,0.0262,0.2802,0.623,78.4,73.3,33.65,2
0.8653,-1.105,-0.053,1.232,74.1,98.0,33.81,6
